,level_0,accX,accY,accZ,timestamp,Norm,label
0,0,0.03,0.0,-0.97,2024-03-22 15:59:41.181,0.9704638066409277,0
1,1,0.02,0.05,-0.94,2024-03-22 15:59:41.197,0.9415412895885129,0
2,2,-0.02,0.01,-1.0,2024-03-22 15:59:41.201,1.0002499687578101,0
3,3,-0.05,0.01,-0.99,2024-03-22 15:59:41.202,0.9913122616007531,0
4,4,0.01,0.02,-1.01,2024-03-22 15:59:41.249,1.010247494428964,0
5,5,-0.02,0.01,-0.96,2024-03-22 15:59:41.253,0.9602603813549739,0
6,6,-0.03,0.01,-1.01,2024-03-22 15:59:41.257,1.0104949282406122,0
7,7,0.04,0.04,-1.0,2024-03-22 15:59:41.292,1.001598722043913,0
8,8,0.04,0.01,-0.93,2024-03-22 15:59:41.297,0.9309135298189624,0
9,9,-0.05,0.01,-0.92,2024-03-22 15:59:41.301,0.9214119599831555,0
10,10,-0.06,0.08,-0.98,2024-03-22 15:59:41.336,0.9850888284819801,0
11,11,-0.06,-0.0,-0.99,2024-03-22 15:59:41.340,0.9918165152889924,0
12,12,-0.02,0.02,-0.98,2024-03-22 15:59:41.344,0.9804080783020915,0
13,13,-0.07,-0.02,-0.98,2024-03-22 15:59:41.389,0.982700361249552,0
14,14,0.03,0.01,-0.97,2024-03-22 15:59:41.392,0.9705153270299238,0
15,15,-0.02,0.03,-1.05,2024-03-22 15:59:41.397,1.0506188652408637,0
16,16,-0.01,0.02,-0.97,2024-03-22 15:59:41.429,0.9702576977277737,0
17,17,-0.03,0.0,-0.99,2024-03-22 15:59:41.433,0.9904544411531506,0
18,18,-0.02,0.02,-0.96,2024-03-22 15:59:41.437,0.9604165762834376,0
19,19,-0.03,0.03,-0.98,2024-03-22 15:59:41.474,0.9809179374443103,0
20,20,-0.02,0.03,-0.99,2024-03-22 15:59:41.480,0.9906563480844404,0
21,21,0.01,0.04,-0.96,2024-03-22 15:59:41.485,0.9608850087289321,0
22,22,-0.06,0.04,-0.98,2024-03-22 15:59:41.520,0.9826494797230597,0
23,23,-0.02,0.05,-0.97,2024-03-22 15:59:41.524,0.9714936952960631,0
24,24,0.02,0.06,-0.98,2024-03-22 15:59:41.529,0.9820386957752734,0
25,25,-0.05,-0.12,-1.02,2024-03-22 15:59:41.561,1.0282509421342632,0
26,26,-0.05,0.01,-1.01,2024-03-22 15:59:41.565,1.0112863096077194,0
27,27,-0.1,-0.0,-0.95,2024-03-22 15:59:41.569,0.95524865872714,0
28,28,0.05,-0.01,-0.96,2024-03-22 15:59:41.605,0.9613532129243653,0
29,29,0.08,0.03,-0.97,2024-03-22 15:59:41.609,0.973755616158387,0
30,30,-0.06,0.07,-1.0,2024-03-22 15:59:41.613,1.0042410069301093,0
31,31,-0.02,0.01,-0.97,2024-03-22 15:59:41.655,0.9702576977277737,0
32,32,-0.02,0.01,-1.0,2024-03-22 15:59:41.658,1.0002499687578101,0
33,33,-0.02,0.0,-0.99,2024-03-22 15:59:41.662,0.9902019995940222,0
34,34,-0.02,0.01,-0.98,2024-03-22 15:59:41.699,0.9802550688468792,0
35,35,-0.01,0.01,-0.98,2024-03-22 15:59:41.703,0.9801020355044672,0
36,36,-0.01,0.01,-1.12,2024-03-22 15:59:41.743,1.1200892821556683,0
37,37,-0.01,0.02,-0.98,2024-03-22 15:59:41.747,0.9802550688468792,0
38,38,-0.01,0.01,-0.98,2024-03-22 15:59:41.752,0.9801020355044672,0
39,39,-0.02,0.01,-1.0,2024-03-22 15:59:41.793,1.0002499687578101,0
40,40,-0.02,-0.0,-1.01,2024-03-22 15:59:41.796,1.010198000393982,0
41,41,-0.0,-0.02,-0.97,2024-03-22 15:59:41.800,0.9702061636580134,0
42,42,0.01,0.06,-0.96,2024-03-22 15:59:41.836,0.9619251530134764,0
43,43,0.05,-0.0,-0.99,2024-03-22 15:59:41.840,0.9912618221237011,0
44,44,0.01,0.23,-0.84,2024-03-22 15:59:41.843,0.870976463516667,0
45,45,0.05,-0.35,-1.02,2024-03-22 15:59:41.878,1.0795369377654476,0
46,46,-0.05,-0.08,-0.92,2024-03-22 15:59:41.882,0.924824307639024,0
47,47,-0.07,0.05,-0.99,2024-03-22 15:59:41.886,0.9937303457175894,0
48,48,-0.03,0.11,-0.92,2024-03-22 15:59:41.929,0.9270382947861432,0
49,49,-0.13,-0.05,-0.99,2024-03-22 15:59:41.932,0.999749968742185,0
50,50,-0.12,-0.03,-1.0,2024-03-22 15:59:41.936,1.007620960480676,0
51,51,0.15,0.19,-1.02,2024-03-22 15:59:41.973,1.0483320084782302,0
52,52,-0.21,-0.18,-0.96,2024-03-22 15:59:41.977,0.9990495483208027,0
53,53,0.1,0.02,-0.96,2024-03-22 15:59:41.981,0.9654014708917735,0
54,54,0.06,0.13,-0.93,2024-03-22 15:59:42.015,0.9409569596958195,0
55,55,-0.08,-0.1,-0.95,2024-03-22 15:59:42.019,0.9585927185202274,0
56,56,-0.08,-0.16,-0.96,2024-03-22 15:59:42.023,0.9765244492586962,0
57,57,0.03,-0.0,-0.97,2024-03-22 15:59:42.062,0.9704638066409277,0
58,58,0.0,0.04,-0.99,2024-03-22 15:59:42.066,0.9908077512817509,0
59,59,0.07,0.03,-0.96,2024-03-22 15:59:42.109,0.9630160954002794,0
60,60,-0.07,-0.1,-0.98,2024-03-22 15:59:42.113,0.9875727821279806,0
61,61,0.03,-0.04,-0.95,2024-03-22 15:59:42.117,0.9513148795220223,0
62,62,-0.07,-0.11,-0.99,2024-03-22 15:59:42.145,0.9985489472229191,0
63,63,-0.03,0.14,-0.97,2024-03-22 15:59:42.148,0.9805100713404222,0
64,64,-0.12,-0.15,-1.04,2024-03-22 15:59:42.151,1.0575916035975323,0
65,65,-0.0,-0.04,-0.98,2024-03-22 15:59:42.187,0.9808159868191383,0
66,66,-0.06,-0.06,-0.98,2024-03-22 15:59:42.190,0.983666610188635,0
67,67,-0.0,0.09,-0.97,2024-03-22 15:59:42.192,0.9741663102366043,0
68,68,-0.03,0.08,-1.02,2024-03-22 15:59:42.237,1.0235721762533407,0
69,69,0.03,-0.0,-0.97,2024-03-22 15:59:42.240,0.9704638066409277,0
70,70,0.01,0.2,-0.92,2024-03-22 15:59:42.244,0.941541289588513,0
71,71,-0.08,0.14,-0.99,2024-03-22 15:59:42.284,1.0030453628824572,0
72,72,-0.13,-0.3,-1.04,2024-03-22 15:59:42.288,1.0901834707974618,0
73,73,0.02,0.1,-0.95,2024-03-22 15:59:42.292,0.9554580053565933,0
74,74,0.03,0.02,-1.03,2024-03-22 15:59:42.331,1.030630874755846,0
75,75,0.0,-0.09,-1.05,2024-03-22 15:59:42.335,1.0538500842150178,0
76,76,-0.05,-0.11,-0.89,2024-03-22 15:59:42.339,0.8981647955692763,0
77,77,-0.04,0.11,-1.04,2024-03-22 15:59:42.371,1.0465658125507444,0
78,78,-0.02,0.13,-0.96,2024-03-22 15:59:42.375,0.9689685237405805,0
79,79,-0.06,0.11,-1.0,2024-03-22 15:59:42.379,1.0078194282707593,0
80,80,-0.07,0.04,-0.96,2024-03-22 15:59:42.416,0.9633794683301071,0
81,81,-0.04,0.03,-0.96,2024-03-22 15:59:42.419,0.9613012014972206,0
82,82,-0.06,0.07,-1.03,2024-03-22 15:59:42.423,1.034117981663601,0
83,83,-0.09,0.06,-0.91,2024-03-22 15:59:42.462,0.9164060235506967,0
84,84,-0.07,0.08,-0.93,2024-03-22 15:59:42.465,0.936055553906925,0
85,85,-0.04,0.11,-0.96,2024-03-22 15:59:42.469,0.9671090941563936,0
86,86,-0.06,0.11,-0.98,2024-03-22 15:59:42.506,0.9879777325425912,0
87,87,-0.05,0.06,-0.99,2024-03-22 15:59:42.511,0.9930760293149764,0
88,88,-0.11,-0.0,-1.08,2024-03-22 15:59:42.554,1.0855873986004074,0
89,89,-0.1,0.01,-1.05,2024-03-22 15:59:42.558,1.0547985589675406,0
90,90,-0.12,0.05,-0.98,2024-03-22 15:59:42.562,0.9885848471426213,0
91,91,-0.16,0.03,-0.92,2024-03-22 15:59:42.598,0.9342911751697112,0
92,92,-0.06,0.07,-1.03,2024-03-22 15:59:42.602,1.034117981663601,0
93,93,-0.11,0.04,-1.07,2024-03-22 15:59:42.606,1.0763828315241748,0
94,94,-0.18,0.05,-0.98,2024-03-22 15:59:42.642,0.9976472322419383,0
95,95,-0.3,0.16,-1.22,2024-03-22 15:59:42.646,1.2664912159190052,0
96,96,-0.58,0.39,-1.06,2024-03-22 15:59:42.650,1.2696850003051938,0
97,97,-0.37,0.11,-0.89,2024-03-22 15:59:42.690,0.970103087305674,0
98,98,0.07,-0.11,-0.82,2024-03-22 15:59:42.693,0.8303011501858828,0
99,99,0.07,-0.38,-0.79,2024-03-22 15:59:42.697,0.8794316346368262,0
100,100,-0.25,0.04,-0.85,2024-03-22 15:59:42.738,0.8869047299456689,0
101,101,-0.33,0.2,-1.02,2024-03-22 15:59:42.741,1.0905503197927182,0
102,102,-0.24,0.17,-0.94,2024-03-22 15:59:42.745,0.9849365461794988,0
103,103,-0.29,0.19,-0.88,2024-03-22 15:59:42.776,0.9458329662260667,0
104,104,-0.27,0.23,-0.94,2024-03-22 15:59:42.780,1.0046890066085126,0
105,105,-0.32,0.15,-0.85,2024-03-22 15:59:42.784,0.9205433178292045,0
106,106,-0.54,0.24,-0.89,2024-03-22 15:59:42.823,1.0683164325236227,0
107,107,-0.49,0.2,-0.84,2024-03-22 15:59:42.826,0.9928242543370905,0
108,108,-0.14,-0.01,-0.8,2024-03-22 15:59:42.831,0.8122191822408531,0
109,109,-0.19,0.06,-0.96,2024-03-22 15:59:42.870,0.9804590761474953,0
110,110,-0.27,0.15,-1.07,2024-03-22 15:59:42.874,1.1136875683960918,0
111,111,-0.27,0.09,-1.1,2024-03-22 15:59:42.878,1.136221809331259,0
112,112,-0.26,0.04,-0.97,2024-03-22 15:59:42.882,1.0050373127401788,0
113,113,-0.2,0.07,-0.93,2024-03-22 15:59:42.908,0.9538343671728338,0
114,114,-0.24,0.16,-0.9,2024-03-22 15:59:42.913,0.9450925880568528,0
115,115,-0.26,0.2,-0.92,2024-03-22 15:59:42.957,0.9767292357659825,0
116,116,-0.27,0.21,-1.01,2024-03-22 15:59:42.959,1.0663489110042734,0
117,117,-0.37,0.28,-0.89,2024-03-22 15:59:42.963,1.0036931802099684,0
118,118,-0.43,0.18,-0.99,2024-03-22 15:59:42.994,1.0942577392917996,0
119,119,-0.36,0.16,-0.99,2024-03-22 15:59:42.996,1.0655045753069294,0
120,120,-0.27,0.1,-0.94,2024-03-22 15:59:42.998,0.9831073186585481,0
121,121,-0.19,-0.02,-0.94,2024-03-22 15:59:43.053,0.959218431849597,0
122,122,-0.02,-0.04,-0.93,2024-03-22 15:59:43.056,0.9310746479203481,0
123,123,-0.06,0.05,-0.93,2024-03-22 15:59:43.059,0.9332738076256079,0
124,124,-0.19,0.14,-0.97,2024-03-22 15:59:43.094,0.9982985525382675,0
125,125,-0.24,0.17,-1.0,2024-03-22 15:59:43.097,1.0423531071570709,0
126,126,-0.22,0.11,-1.0,2024-03-22 15:59:43.101,1.029805806936434,0
127,127,-0.04,0.15,-1.03,2024-03-22 15:59:43.136,1.041633332799983,0
128,128,-0.0,0.18,-1.06,2024-03-22 15:59:43.140,1.075174404457249,0
129,129,0.03,0.2,-1.09,2024-03-22 15:59:43.144,1.108602724153247,0
130,130,0.1,0.21,-1.1,2024-03-22 15:59:43.181,1.1243220179290274,0
131,131,0.21,0.22,-1.15,2024-03-22 15:59:43.185,1.1895377253370318,0
132,132,0.19,0.16,-1.13,2024-03-22 15:59:43.188,1.1569788243524597,0
133,133,0.11,0.37,-1.05,2024-03-22 15:59:43.227,1.1187046080176841,0
134,134,0.27,0.23,-0.95,2024-03-22 15:59:43.231,1.014051280754578,0
135,135,0.51,0.27,-1.09,2024-03-22 15:59:43.235,1.233328828820603,0
136,136,0.19,0.24,-1.06,2024-03-22 15:59:43.277,1.1033131921625883,0
137,137,0.28,0.17,-0.75,2024-03-22 15:59:43.281,0.818413098624405,0
138,138,0.43,0.19,-0.61,2024-03-22 15:59:43.285,0.7701298591796061,0
139,139,0.56,0.16,-0.51,2024-03-22 15:59:43.315,0.7741446893184762,0
140,140,0.68,0.32,-0.63,2024-03-22 15:59:43.319,0.9806630410084802,0
141,141,0.86,0.44,-0.55,2024-03-22 15:59:43.323,1.1116204388189344,0
142,142,0.91,0.3,-0.46,2024-03-22 15:59:43.365,1.0628734637763801,0
143,143,0.91,0.35,-0.38,2024-03-22 15:59:43.368,1.0464224768228174,0
144,144,0.91,0.19,-0.34,2024-03-22 15:59:43.373,0.9898484732523459,0
145,145,0.87,0.31,-0.28,2024-03-22 15:59:43.405,0.965090669315583,0
146,146,0.87,0.33,-0.2,2024-03-22 15:59:43.409,0.9517352573063583,0
147,147,0.98,0.3,-0.12,2024-03-22 15:59:43.413,1.0318914671611545,0
148,148,0.93,0.29,-0.13,2024-03-22 15:59:43.455,0.9828021163998377,0
149,149,0.91,0.26,-0.16,2024-03-22 15:59:43.459,0.9598437372822725,0
150,150,0.87,0.36,-0.0,2024-03-22 15:59:43.496,0.941541289588513,0
151,151,0.85,0.3,-0.02,2024-03-22 15:59:43.500,0.90160967164289,0
152,152,0.87,0.39,0.06,2024-03-22 15:59:43.505,0.9553009996854395,0
153,153,0.77,0.4,0.08,2024-03-22 15:59:43.548,0.8713782186857782,0
154,154,0.81,0.32,0.12,2024-03-22 15:59:43.553,0.8791473141629906,0
155,155,0.85,0.22,0.19,2024-03-22 15:59:43.558,0.8983317872590282,0
156,156,0.77,0.05,0.31,2024-03-22 15:59:43.585,0.8315647900193947,0
157,157,1.07,-0.24,0.47,2024-03-22 15:59:43.589,1.1930632841555389,0
158,158,-0.17,1.04,0.75,2024-03-22 15:59:43.593,1.2934450123604018,0
159,159,0.72,-0.23,1.1,2024-03-22 15:59:43.629,1.3346535130886967,0
160,160,0.89,-0.33,0.73,2024-03-22 15:59:43.633,1.1974556359214314,0
161,161,0.79,-0.12,0.77,2024-03-22 15:59:43.636,1.109684639886486,0
162,162,0.68,0.12,0.76,2024-03-22 15:59:43.681,1.026839812239475,0
163,163,0.74,0.08,0.47,2024-03-22 15:59:43.683,0.8802840450672725,0
164,164,0.95,-0.15,0.63,2024-03-22 15:59:43.687,1.1497391008398383,0
165,165,0.97,0.03,0.59,2024-03-22 15:59:43.722,1.1357376457615551,0
166,166,1.04,0.17,0.68,2024-03-22 15:59:43.726,1.2541531007018243,0
167,167,0.83,0.13,0.67,2024-03-22 15:59:43.730,1.074569681314339,0
168,168,0.77,0.37,0.88,2024-03-22 15:59:43.783,1.2264583156389783,0
169,169,0.6,0.06,0.09,2024-03-22 15:59:43.784,0.6096720429870472,0
170,170,0.79,-0.2,0.63,2024-03-22 15:59:43.785,1.0300485425454473,0
171,171,0.97,0.17,0.77,2024-03-22 15:59:43.817,1.2500799974401637,0
172,172,1.04,0.41,1.06,2024-03-22 15:59:43.820,1.5405518491761323,0
173,173,0.66,0.37,0.85,2024-03-22 15:59:43.824,1.1379806676741042,0
174,174,0.68,0.06,0.4,2024-03-22 15:59:43.903,0.7912016177940994,0
175,175,0.7,0.07,0.58,2024-03-22 15:59:43.907,0.9117565464530539,0
176,176,0.61,0.21,0.78,2024-03-22 15:59:43.909,1.0122252713699653,0
177,177,0.69,0.25,0.86,2024-03-22 15:59:43.912,1.1305750749065715,0
178,178,0.81,0.22,0.9,2024-03-22 15:59:43.949,1.2306502346320827,0
179,179,0.75,0.27,0.89,2024-03-22 15:59:43.953,1.1947803145348521,0
180,180,0.77,0.27,0.86,2024-03-22 15:59:43.957,1.1854956769216831,0
181,181,0.74,0.28,0.91,2024-03-22 15:59:43.992,1.2058606884711018,0
182,182,0.76,0.25,0.83,2024-03-22 15:59:43.996,1.1528226229563678,0
183,183,0.66,0.26,0.92,2024-03-22 15:59:44.000,1.1617228585166086,0
184,184,0.66,0.09,1.2,2024-03-22 15:59:44.043,1.3724795080437449,0
185,185,0.51,0.37,0.73,2024-03-22 15:59:44.046,0.9643132271207318,0
186,186,0.49,0.43,0.9,2024-03-22 15:59:44.050,1.1113055385446433,0
187,187,0.43,0.41,0.82,2024-03-22 15:59:44.083,1.0126203632161461,0
188,188,0.43,0.42,0.78,2024-03-22 15:59:44.087,0.984733466477097,0
189,189,0.43,0.41,0.71,2024-03-22 15:59:44.091,0.9257969539807311,0
190,190,0.49,0.41,0.88,2024-03-22 15:59:44.127,1.0874741376235115,0
191,191,0.56,0.43,1.14,2024-03-22 15:59:44.131,1.3409325113517085,0
192,192,0.45,0.54,0.86,2024-03-22 15:59:44.136,1.110720486891279,0
193,193,0.44,0.43,1.09,2024-03-22 15:59:44.176,1.2516389255691915,0
194,194,0.46,0.62,1.54,2024-03-22 15:59:44.180,1.7226723426119084,0
195,195,0.37,0.52,0.78,2024-03-22 15:59:44.184,1.0078194282707593,0
196,196,0.32,0.54,0.94,2024-03-22 15:59:44.218,1.1303096920755833,0
197,197,0.3,0.68,0.66,2024-03-22 15:59:44.222,0.9939818911831343,0
198,198,0.22,0.71,0.63,2024-03-22 15:59:44.225,0.9743715923609432,0
199,199,0.15,0.71,0.37,2024-03-22 15:59:44.271,0.8145550932871268,0
200,200,0.05,0.69,0.35,2024-03-22 15:59:44.274,0.775306391048081,0
201,201,-0.02,0.58,0.29,2024-03-22 15:59:44.278,0.6487680633323437,0
202,202,-0.1,0.56,0.25,2024-03-22 15:59:44.306,0.6213694553162394,0
203,203,-0.17,0.55,0.17,2024-03-22 15:59:44.310,0.6002499479383567,0
204,204,-0.2,0.51,0.12,2024-03-22 15:59:44.315,0.5608029957123981,0
205,205,-0.24,0.51,0.08,2024-03-22 15:59:44.352,0.5692978130996114,0
206,206,-0.24,0.52,0.06,2024-03-22 15:59:44.356,0.5758472019555188,0
207,207,-0.21,0.59,0.09,2024-03-22 15:59:44.360,0.6326926584053271,0
208,208,-0.13,0.67,0.11,2024-03-22 15:59:44.400,0.6913031173081748,0
209,209,-0.02,0.78,0.16,2024-03-22 15:59:44.404,0.7964923100695951,0
210,210,0.14,0.99,0.24,2024-03-22 15:59:44.408,1.0282509421342632,0
211,211,0.24,1.08,0.29,2024-03-22 15:59:44.442,1.1437219941926449,0
212,212,0.27,1.12,0.3,2024-03-22 15:59:44.446,1.1905040949110592,0
213,213,0.27,1.09,0.3,2024-03-22 15:59:44.450,1.1623252556836232,0
214,214,0.23,1.04,0.29,2024-03-22 15:59:44.487,1.103902169578446,0
215,215,0.17,0.98,0.27,2024-03-22 15:59:44.491,1.030630874755846,0
216,216,0.06,0.86,0.25,2024-03-22 15:59:44.496,0.8976079322287654,0
217,217,-0.04,0.68,0.22,2024-03-22 15:59:44.535,0.7158212067269313,0
218,218,-0.14,0.49,0.21,2024-03-22 15:59:44.538,0.5511805511808268,0
219,219,-0.2,0.4,0.19,2024-03-22 15:59:44.543,0.4859012245302537,0
220,220,-0.24,0.37,0.19,2024-03-22 15:59:44.546,0.4802082881417188,0
221,221,-0.26,0.36,0.18,2024-03-22 15:59:44.579,0.47916594202843754,0
222,222,-0.26,0.39,0.16,2024-03-22 15:59:44.583,0.4952776998815917,0
223,223,-0.22,0.43,0.16,2024-03-22 15:59:44.622,0.508822169328342,0
224,224,-0.16,0.49,0.23,2024-03-22 15:59:44.626,0.5644466316668034,0
225,225,-0.06,0.61,0.35,2024-03-22 15:59:44.630,0.7058328414008518,0
226,226,0.02,0.76,0.41,2024-03-22 15:59:44.674,0.8637708029332781,0
227,227,0.13,0.86,0.46,2024-03-22 15:59:44.678,0.9839207285142436,0
228,228,0.17,0.96,0.5,2024-03-22 15:59:44.682,1.095673308974897,0
229,229,0.3,0.95,0.62,2024-03-22 15:59:44.760,1.1734138229968147,0
230,230,0.39,1.1,0.68,2024-03-22 15:59:44.764,1.3507405376311175,0
231,231,0.42,1.07,0.71,2024-03-22 15:59:44.796,1.351073647141413,0
232,232,0.43,1.08,0.72,2024-03-22 15:59:44.797,1.367369737854396,0
233,233,0.31,1.0,0.79,2024-03-22 15:59:44.799,1.3115639519291464,0
234,234,0.19,0.93,0.84,2024-03-22 15:59:44.801,1.2675172582651488,0
235,235,0.24,0.92,1.36,2024-03-22 15:59:44.840,1.6593974810153234,0
236,236,0.32,0.65,1.26,2024-03-22 15:59:44.841,1.4534441853748634,0
237,237,0.32,0.6,1.13,2024-03-22 15:59:44.843,1.3188252348207474,0
238,238,0.26,0.66,1.0,2024-03-22 15:59:44.895,1.2260505699195283,0
239,239,0.15,0.56,0.8,2024-03-22 15:59:44.898,0.9879777325425914,0
240,240,0.06,0.53,0.69,2024-03-22 15:59:44.902,0.8721238444166057,0
241,241,0.07,0.57,0.67,2024-03-22 15:59:44.935,0.8824397996464122,0
242,242,0.1,0.59,0.62,2024-03-22 15:59:44.939,0.8616843969807043,0
243,243,0.22,0.84,0.84,2024-03-22 15:59:44.944,1.2081390648431163,0
244,244,0.33,0.84,0.87,2024-03-22 15:59:44.982,1.2535549449465706,0
245,245,0.32,0.66,0.87,2024-03-22 15:59:44.986,1.1379367293483413,0
246,246,0.2,0.64,0.85,2024-03-22 15:59:44.990,1.082635672791175,0
247,247,0.19,0.59,0.89,2024-03-22 15:59:45.026,1.084573648951513,0
248,248,0.15,0.58,0.91,2024-03-22 15:59:45.030,1.089495295997188,0
249,249,0.1,0.57,0.89,2024-03-22 15:59:45.034,1.0616025621672172,0
250,250,0.04,0.48,0.89,2024-03-22 15:59:45.038,1.0119782606360672,0
251,251,0.07,0.55,0.79,2024-03-22 15:59:45.072,0.9651424765287249,0
252,252,0.11,0.65,0.77,2024-03-22 15:59:45.076,1.0136567466356647,0
253,253,0.1,0.79,0.71,2024-03-22 15:59:45.081,1.0668645649753299,0
254,254,0.06,0.64,0.68,2024-03-22 15:59:45.118,0.9357350052231669,0
255,255,0.14,0.52,0.77,2024-03-22 15:59:45.123,0.9396275858019495,0
256,256,0.14,0.53,0.8,2024-03-22 15:59:45.128,0.9697937925146769,0
257,257,0.01,0.59,0.87,2024-03-22 15:59:45.162,1.0512373661547614,0
258,258,0.14,0.6,0.84,2024-03-22 15:59:45.166,1.0417293314484333,0
259,259,0.11,0.58,0.72,2024-03-22 15:59:45.170,0.931074647920348,0
260,260,0.14,0.69,0.87,2024-03-22 15:59:45.206,1.1191961400934154,0
261,261,0.14,0.56,0.77,2024-03-22 15:59:45.210,0.9623408959407265,0
262,262,0.17,0.5,0.74,2024-03-22 15:59:45.214,0.9091204540653565,0
263,263,0.22,0.49,0.75,2024-03-22 15:59:45.255,0.9224966124599049,0
264,264,0.15,0.57,0.76,2024-03-22 15:59:45.258,0.9617692030835673,0
265,265,0.25,0.58,0.8,2024-03-22 15:59:45.262,1.0192644406629714,0
266,266,0.31,0.61,0.78,2024-03-22 15:59:45.297,1.0375933692926145,0
267,267,0.41,0.58,0.78,2024-03-22 15:59:45.302,1.0549407566304376,0
268,268,0.38,0.6,0.77,2024-03-22 15:59:45.306,1.0475208828467335,0
269,269,0.35,0.65,0.74,2024-03-22 15:59:45.343,1.0452750834110607,0
270,270,0.41,0.65,0.71,2024-03-22 15:59:45.348,1.046279121458514,0
271,271,0.47,0.6,0.66,2024-03-22 15:59:45.352,1.0082162466455298,0
272,272,0.49,0.67,0.66,2024-03-22 15:59:45.388,1.0604715932074749,0
273,273,0.43,0.67,0.63,2024-03-22 15:59:45.392,1.0152339631828715,0
274,274,0.44,0.68,0.6,2024-03-22 15:59:45.396,1.0079682534683323,0
275,275,0.42,0.72,0.63,2024-03-22 15:59:45.398,1.04484448603608,0
276,276,0.46,0.7,0.6,2024-03-22 15:59:45.430,1.0303397497913005,0
277,277,0.47,0.73,0.6,2024-03-22 15:59:45.434,1.0553672346628922,0
278,278,0.47,0.74,0.59,2024-03-22 15:59:45.478,1.0566929544574433,0
279,279,0.44,0.77,0.59,2024-03-22 15:59:45.482,1.0651760417883984,0
280,280,0.42,0.8,0.54,2024-03-22 15:59:45.486,1.0526157893552615,0
281,281,0.4,0.79,0.53,2024-03-22 15:59:45.522,1.0319883720275147,0
282,282,0.46,0.79,0.53,2024-03-22 15:59:45.528,1.0566929544574433,0
283,283,0.41,0.81,0.58,2024-03-22 15:59:45.534,1.0773114684249863,0
284,284,0.39,0.82,0.56,2024-03-22 15:59:45.563,1.0668176976409793,0
285,285,0.32,0.82,0.56,2024-03-22 15:59:45.569,1.0432641084595982,0
286,286,0.32,0.83,0.55,2024-03-22 15:59:45.573,1.0458489374665922,0
287,287,0.28,0.83,0.52,2024-03-22 15:59:45.610,1.0186756107809787,0
288,288,0.28,0.82,0.51,2024-03-22 15:59:45.614,1.0054352291420865,0
289,289,0.31,0.83,0.54,2024-03-22 15:59:45.618,1.0375933692926145,0
290,290,0.24,0.8,0.56,2024-03-22 15:59:45.659,1.0055844071981228,0
291,291,0.27,0.83,0.59,2024-03-22 15:59:45.662,1.0535179163165664,0
292,292,0.25,0.81,0.52,2024-03-22 15:59:45.666,0.9944847912361456,0
293,293,0.26,0.83,0.54,2024-03-22 15:59:45.702,1.0237675517420934,0
294,294,0.24,0.84,0.53,2024-03-22 15:59:45.706,1.0218121158021174,0
295,295,0.23,0.85,0.53,2024-03-22 15:59:45.710,1.0277645644796283,0
296,296,0.24,0.86,0.51,2024-03-22 15:59:45.750,1.0282509421342632,0
297,297,0.24,0.86,0.52,2024-03-22 15:59:45.754,1.0332473082471592,0
298,298,0.23,0.87,0.52,2024-03-22 15:59:45.758,1.0393267051317405,0
299,299,0.22,0.88,0.52,2024-03-22 15:59:45.799,1.0455620498086184,0
300,300,0.21,0.88,0.52,2024-03-22 15:59:45.803,1.0435037134576954,0
301,301,0.19,0.88,0.5,2024-03-22 15:59:45.807,1.029805806936434,0
302,302,0.22,0.87,0.49,2024-03-22 15:59:45.834,1.0224480426897007,0
303,303,0.21,0.87,0.51,2024-03-22 15:59:45.839,1.0300970828033638,0
304,304,0.22,0.83,0.51,2024-03-22 15:59:45.843,0.9986991538997116,0
305,305,0.19,0.87,0.52,2024-03-22 15:59:45.886,1.0312128781197412,0
306,306,0.21,0.86,0.48,2024-03-22 15:59:45.890,1.0070253224224304,0
307,307,0.13,0.9,0.44,2024-03-22 15:59:45.893,1.0101980003939823,0
308,308,0.11,0.9,0.4,2024-03-22 15:59:45.927,0.9910095862301233,0
309,309,0.18,0.92,0.36,2024-03-22 15:59:45.931,1.0041912168506553,0
310,310,0.14,0.91,0.34,2024-03-22 15:59:45.935,0.9814784765851975,0
311,311,0.09,0.9,0.31,2024-03-22 15:59:45.977,0.9561380653441217,0
312,312,0.13,0.89,0.35,2024-03-22 15:59:45.981,0.9651424765287248,0
313,313,0.12,0.86,0.37,2024-03-22 15:59:45.985,0.9438749917229505,0
314,314,0.13,0.88,0.35,2024-03-22 15:59:46.015,0.955928867646542,0
315,315,0.14,0.89,0.34,2024-03-22 15:59:46.019,0.9629641737884126,0
316,316,0.12,0.91,0.34,2024-03-22 15:59:46.023,0.9788258272031853,0
317,317,0.15,0.93,0.35,2024-03-22 15:59:46.062,1.004937809021036,0
318,318,0.16,0.94,0.36,2024-03-22 15:59:46.066,1.0192153844992726,0
319,319,0.17,0.94,0.36,2024-03-22 15:59:46.070,1.0208329931972222,0
320,320,0.18,0.94,0.36,2024-03-22 15:59:46.110,1.0225458424931373,0
321,321,0.18,0.94,0.35,2024-03-22 15:59:46.113,1.0190682018393078,0
322,322,0.19,0.93,0.36,2024-03-22 15:59:46.117,1.0151847122568387,0
323,323,0.2,0.94,0.36,2024-03-22 15:59:46.159,1.0262553288533998,0
324,324,0.21,0.95,0.36,2024-03-22 15:59:46.162,1.037400597647794,0
325,325,0.22,0.96,0.36,2024-03-22 15:59:46.166,1.0486181383134663,0
326,326,0.22,0.96,0.37,2024-03-22 15:59:46.203,1.0520931517693668,0
327,327,0.22,0.96,0.37,2024-03-22 15:59:46.206,1.0520931517693668,0
328,328,0.22,0.96,0.36,2024-03-22 15:59:46.210,1.0486181383134663,0
329,329,0.21,0.95,0.35,2024-03-22 15:59:46.244,1.0339729203417274,0
330,330,0.2,0.95,0.34,2024-03-22 15:59:46.248,1.028639878674748,0
331,331,0.21,0.97,0.34,2024-03-22 15:59:46.251,1.0490948479522717,0
332,332,0.22,0.94,0.36,2024-03-22 15:59:46.291,1.0303397497913005,0
333,333,0.22,0.96,0.37,2024-03-22 15:59:46.294,1.0520931517693668,0
334,334,0.2,0.96,0.36,2024-03-22 15:59:46.298,1.0446051885760477,0
335,335,0.19,0.95,0.35,2024-03-22 15:59:46.332,1.0300970828033638,0
336,336,0.18,0.94,0.34,2024-03-22 15:59:46.336,1.0156771140475698,0
337,337,0.18,0.93,0.33,2024-03-22 15:59:46.339,1.0030952098380295,0
338,338,0.18,0.93,0.33,2024-03-22 15:59:46.378,1.0030952098380295,0
339,339,0.17,0.93,0.34,2024-03-22 15:59:46.382,1.0046890066085128,0
340,340,0.17,0.93,0.34,2024-03-22 15:59:46.386,1.0046890066085128,0
341,341,0.17,0.91,0.34,2024-03-22 15:59:46.422,0.9862048468751308,0
342,342,0.17,0.92,0.34,2024-03-22 15:59:46.426,0.9954396013822235,0
343,343,0.16,0.91,0.33,2024-03-22 15:59:46.430,0.9811218069128828,0
344,344,0.16,0.92,0.33,2024-03-22 15:59:46.467,0.9904039579888602,0
345,345,0.16,0.93,0.33,2024-03-22 15:59:46.471,0.999699954986495,0
346,346,0.18,0.93,0.35,2024-03-22 15:59:46.475,1.0098514742277698,0
347,347,0.18,0.94,0.36,2024-03-22 15:59:46.480,1.0225458424931373,0
348,348,0.19,0.93,0.36,2024-03-22 15:59:46.519,1.0151847122568387,0
349,349,0.18,0.93,0.35,2024-03-22 15:59:46.522,1.0098514742277698,0
350,350,0.18,0.93,0.33,2024-03-22 15:59:46.526,1.0030952098380295,0
351,351,0.18,0.92,0.35,2024-03-22 15:59:46.557,1.000649788887201,0
352,352,0.18,0.92,0.35,2024-03-22 15:59:46.562,1.000649788887201,0
353,353,0.17,0.92,0.35,2024-03-22 15:59:46.567,0.9988993943335835,0
354,354,0.17,0.93,0.34,2024-03-22 15:59:46.602,1.0046890066085128,0
355,355,0.17,0.93,0.35,2024-03-22 15:59:46.606,1.0081170566953028,0
356,356,0.19,0.91,0.37,2024-03-22 15:59:46.610,1.0005498488331304,0
357,357,0.19,0.92,0.37,2024-03-22 15:59:46.650,1.0096534058774824,0
358,358,0.2,0.92,0.36,2024-03-22 15:59:46.653,1.0079682534683323,0
359,359,0.2,0.91,0.37,2024-03-22 15:59:46.657,1.002496882788171,0
360,360,0.2,0.91,0.38,2024-03-22 15:59:46.694,1.0062305898749055,0
361,361,0.2,0.91,0.38,2024-03-22 15:59:46.697,1.0062305898749055,0
362,362,0.21,0.92,0.36,2024-03-22 15:59:46.702,1.01,0
363,363,0.21,0.93,0.35,2024-03-22 15:59:46.742,1.0156278846112883,0
364,364,0.21,0.92,0.35,2024-03-22 15:59:46.745,1.0064790112068907,0
365,365,0.21,0.94,0.35,2024-03-22 15:59:46.749,1.024792661956554,0
366,366,0.21,0.94,0.35,2024-03-22 15:59:46.781,1.024792661956554,0
367,367,0.21,0.94,0.34,2024-03-22 15:59:46.785,1.021420579389313,0
368,368,0.2,0.94,0.34,2024-03-22 15:59:46.789,1.0194115949899727,0
369,369,0.2,0.93,0.34,2024-03-22 15:59:46.829,1.0101980003939823,0
370,370,0.2,0.93,0.33,2024-03-22 15:59:46.833,1.0068763578513502,0
371,371,0.2,0.94,0.32,2024-03-22 15:59:46.838,1.012916580968048,0
372,372,0.2,0.93,0.31,2024-03-22 15:59:46.870,1.000499875062461,0
373,373,0.19,0.93,0.31,2024-03-22 15:59:46.874,0.9985489472229191,0
374,374,0.2,0.93,0.33,2024-03-22 15:59:46.878,1.0068763578513502,0
375,375,0.19,0.92,0.34,2024-03-22 15:59:46.919,0.9990495483208028,0
376,376,0.2,0.91,0.36,2024-03-22 15:59:46.923,0.9988493379884676,0
377,377,0.2,0.92,0.36,2024-03-22 15:59:46.927,1.0079682534683323,0
378,378,0.2,0.92,0.35,2024-03-22 15:59:46.962,1.0044401425669924,0
379,379,0.21,0.92,0.36,2024-03-22 15:59:46.966,1.01,0
380,380,0.22,0.93,0.35,2024-03-22 15:59:46.970,1.017742600071354,0
381,381,0.22,0.95,0.34,2024-03-22 15:59:47.011,1.0327148686835104,0
382,382,0.22,0.96,0.32,2024-03-22 15:59:47.014,1.0355674772799695,0
383,383,0.21,0.96,0.31,2024-03-22 15:59:47.018,1.0304368005850724,0
384,384,0.2,0.97,0.32,2024-03-22 15:59:47.055,1.0408169867945085,0
385,385,0.21,0.96,0.33,2024-03-22 15:59:47.058,1.0366291525902598,0
386,386,0.24,0.97,0.35,2024-03-22 15:59:47.060,1.058772874605314,0
387,387,0.27,0.99,0.34,2024-03-22 15:59:47.099,1.0810180387024075,0
388,388,0.27,0.99,0.33,2024-03-22 15:59:47.103,1.0779146533933008,0
389,389,0.28,0.99,0.32,2024-03-22 15:59:47.148,1.0774506949276148,0
390,390,0.31,1.0,0.28,2024-03-22 15:59:47.151,1.0837435120913066,0
391,391,0.35,1.05,0.23,2024-03-22 15:59:47.155,1.1304423912787418,0
392,392,0.43,1.12,0.18,2024-03-22 15:59:47.187,1.213136430909566,0
393,393,0.48,1.23,0.18,2024-03-22 15:59:47.191,1.3325539388707686,0
394,394,0.49,1.26,0.23,2024-03-22 15:59:47.196,1.3713497001129946,0
395,395,0.46,1.26,0.26,2024-03-22 15:59:47.230,1.3663088962602856,0
396,396,0.39,1.2,0.27,2024-03-22 15:59:47.246,1.290348790056394,0
397,397,0.32,1.13,0.27,2024-03-22 15:59:47.247,1.205072611920128,0
398,398,0.22,1.02,0.28,2024-03-22 15:59:47.278,1.0803703068855603,0
399,399,0.14,0.91,0.32,2024-03-22 15:59:47.282,0.9747307320486002,0
400,400,0.09,0.82,0.33,2024-03-22 15:59:47.286,0.888481851249647,0
401,401,0.03,0.75,0.32,2024-03-22 15:59:47.320,0.815965685553014,0
402,402,-0.0,0.72,0.31,2024-03-22 15:59:47.324,0.7839005038906404,0
403,403,-0.05,0.7,0.31,2024-03-22 15:59:47.329,0.7672027111526653,0
404,404,-0.11,0.69,0.29,2024-03-22 15:59:47.373,0.7565051222562871,0
405,405,-0.16,0.68,0.28,2024-03-22 15:59:47.376,0.7525955088890712,0
406,406,-0.18,0.68,0.27,2024-03-22 15:59:47.379,0.7534586916347837,0
407,407,-0.19,0.68,0.25,2024-03-22 15:59:47.410,0.7489993324429604,0
408,408,-0.18,0.65,0.22,2024-03-22 15:59:47.413,0.709436396021518,0
409,409,-0.18,0.62,0.2,2024-03-22 15:59:47.418,0.675869809948632,0
410,410,-0.16,0.57,0.15,2024-03-22 15:59:47.457,0.6107372593840988,0
411,411,-0.15,0.55,0.09,2024-03-22 15:59:47.461,0.5771481612203231,0
412,412,-0.14,0.51,0.04,2024-03-22 15:59:47.465,0.5303772242470447,0
413,413,-0.13,0.51,-0.02,2024-03-22 15:59:47.504,0.5266877632905478,0
414,414,-0.06,0.6,-0.01,2024-03-22 15:59:47.508,0.6030754513325841,0
415,415,0.04,0.78,0.12,2024-03-22 15:59:47.512,0.7901898506055365,0
416,416,0.37,0.92,0.32,2024-03-22 15:59:47.548,1.0419692893746917,0
417,417,0.9,1.34,0.99,2024-03-22 15:59:47.553,1.893594465560142,0
418,418,1.46,1.82,1.51,2024-03-22 15:59:47.556,2.779226511099806,0
419,419,1.89,1.86,1.72,2024-03-22 15:59:47.599,3.160711945116163,0
420,420,1.87,1.73,1.54,2024-03-22 15:59:47.602,2.976810373537421,0
421,421,1.52,1.17,1.02,2024-03-22 15:59:47.606,2.1724870540465826,0
422,422,1.1,0.79,0.5,2024-03-22 15:59:47.636,1.4436412296689232,0
423,423,0.75,0.66,0.19,2024-03-22 15:59:47.640,1.0169562429131354,0
424,424,0.53,0.57,-0.01,2024-03-22 15:59:47.644,0.7783957862167549,0
425,425,0.32,0.47,-0.13,2024-03-22 15:59:47.648,0.5832666628567075,0
426,426,0.17,0.45,-0.22,2024-03-22 15:59:47.680,0.5289612462175278,0
427,427,0.02,0.44,-0.3,2024-03-22 15:59:47.684,0.5329165037789692,0
428,428,-0.14,0.42,-0.39,2024-03-22 15:59:47.729,0.59,0
429,429,-0.26,0.38,-0.5,2024-03-22 15:59:47.732,0.6797058187186572,0
430,430,-0.36,0.44,-0.62,2024-03-22 15:59:47.737,0.8411896337925236,0
431,431,-0.37,0.53,-0.69,2024-03-22 15:59:47.778,0.9454628496138808,0
432,432,-0.3,0.63,-0.79,2024-03-22 15:59:47.819,1.0540398474441088,0
433,433,-0.45,0.74,-0.64,2024-03-22 15:59:47.822,1.0768936809174803,0
434,434,-0.29,1.07,-0.8,2024-03-22 15:59:47.825,1.3671137480107498,0
435,435,-0.24,1.15,-0.79,2024-03-22 15:59:47.829,1.4156977078458521,0
436,436,0.2,1.8,-0.5,2024-03-22 15:59:47.866,1.8788294228055937,0
437,437,0.43,2.27,-0.17,2024-03-22 15:59:47.870,2.3166139082721573,0
438,438,0.63,2.44,0.58,2024-03-22 15:59:47.874,2.5859040972162908,0
439,439,0.52,2.52,0.73,2024-03-22 15:59:47.912,2.674640162713482,0
440,440,0.38,2.34,0.82,2024-03-22 15:59:47.915,2.5084656664981484,0
441,441,0.44,2.3,0.96,2024-03-22 15:59:47.920,2.5308496596992875,0
442,442,0.45,2.05,0.99,2024-03-22 15:59:47.949,2.320581823595109,0
443,443,0.39,1.86,0.81,2024-03-22 15:59:47.953,2.0658654360824182,0
444,444,0.23,1.35,0.83,2024-03-22 15:59:47.957,1.6013431862033822,0
445,445,0.03,1.1,0.65,2024-03-22 15:59:48.001,1.2780453826057978,0
446,446,0.02,0.81,0.5,2024-03-22 15:59:48.004,0.9521029356114811,0
447,447,-0.08,0.55,0.01,2024-03-22 15:59:48.009,0.5558776843874919,0
448,448,-0.16,0.29,0.29,2024-03-22 15:59:48.048,0.4402272140611027,0
449,449,-0.12,0.11,0.14,2024-03-22 15:59:48.051,0.21470910553583888,0
450,450,-0.08,-0.24,0.14,2024-03-22 15:59:48.055,0.28913664589601923,0
451,451,-0.24,-0.36,0.06,2024-03-22 15:59:48.089,0.4368065933568311,0
452,452,-0.31,-0.71,0.03,2024-03-22 15:59:48.093,0.7753063910480811,0
453,453,-0.48,-0.95,0.03,2024-03-22 15:59:48.097,1.0648004507887852,0
454,454,-0.62,-1.04,-0.01,2024-03-22 15:59:48.136,1.210826164236634,0
455,455,-0.72,-1.14,-0.14,2024-03-22 15:59:48.139,1.3555810562264434,0
456,456,-0.69,-1.28,-0.27,2024-03-22 15:59:48.143,1.4789861392183499,0
457,457,-0.69,-1.33,-0.34,2024-03-22 15:59:48.182,1.5364244205296922,0
458,458,-0.61,-1.27,-0.48,2024-03-22 15:59:48.185,1.4884219831754701,0
459,459,-0.51,-1.2,-0.41,2024-03-22 15:59:48.189,1.366821129482567,0
460,460,-0.21,-1.3,-0.2,2024-03-22 15:59:48.230,1.331953452640144,0
461,461,-0.03,-1.25,-0.11,2024-03-22 15:59:48.234,1.2551892287619424,0
462,462,0.33,-1.21,-0.1,2024-03-22 15:59:48.239,1.2581732790041282,0
463,463,0.58,-1.17,-0.07,2024-03-22 15:59:48.242,1.3077461527376022,0
464,464,0.84,-1.13,-0.07,2024-03-22 15:59:48.268,1.4097517511959328,0
465,465,1.13,-1.03,-0.1,2024-03-22 15:59:48.272,1.5322532427767936,0
466,466,1.39,-0.84,-0.22,2024-03-22 15:59:48.313,1.638932579455299,0
467,467,1.75,-0.36,-0.46,2024-03-22 15:59:48.317,1.844911922016875,0
468,468,2.13,0.3,-0.82,2024-03-22 15:59:48.321,2.3020208513391007,0
469,469,3.24,11.01,5.11,2024-03-22 15:59:48.365,12.56303307326698,0
470,470,7.93,12.43,-0.23,2024-03-22 15:59:48.368,14.745938423850818,0
471,471,1.44,6.26,-0.29,2024-03-22 15:59:48.372,6.430031104123835,0
472,472,0.53,1.99,-1.2,2024-03-22 15:59:48.400,2.3834848436690343,0
473,473,0.27,1.84,-0.53,2024-03-22 15:59:48.405,1.9337528280522307,0
474,474,1.28,2.19,-0.51,2024-03-22 15:59:48.409,2.5873925098446118,0
475,475,1.21,1.99,-0.06,2024-03-22 15:59:48.447,2.329763936539494,0
476,476,1.17,1.82,-0.1,2024-03-22 15:59:48.451,2.165940904087644,0
477,477,0.98,1.48,-0.18,2024-03-22 15:59:48.455,1.784152459853137,0
478,478,0.76,1.07,-0.37,2024-03-22 15:59:48.485,1.3635981812836215,0
479,479,0.66,0.91,-0.46,2024-03-22 15:59:48.487,1.2146192819151194,0
480,480,0.58,0.69,-0.44,2024-03-22 15:59:48.489,1.0030453628824572,0
481,481,0.49,0.38,-0.34,2024-03-22 15:59:48.537,0.7071774883294858,0
482,482,0.35,0.07,-0.23,2024-03-22 15:59:48.541,0.4246174749112429,0
483,483,0.18,-0.14,-0.19,2024-03-22 15:59:48.545,0.2968164415931166,0
484,484,0.04,-0.31,-0.17,2024-03-22 15:59:48.583,0.35580893749314396,0
485,485,-0.02,-0.41,-0.15,2024-03-22 15:59:48.587,0.43703546766824314,0
486,486,-0.08,-0.47,-0.15,2024-03-22 15:59:48.591,0.49979995998399196,0
487,487,-0.15,-0.54,-0.15,2024-03-22 15:59:48.629,0.5801723881744115,0
488,488,-0.24,-0.64,-0.15,2024-03-22 15:59:48.632,0.6997856814768362,0
489,489,-0.38,-0.77,-0.15,2024-03-22 15:59:48.638,0.8716650732936361,0
490,490,-0.5,-0.86,-0.15,2024-03-22 15:59:48.673,1.0060318086422517,0
491,491,-0.5,-0.94,-0.17,2024-03-22 15:59:48.677,1.0781929326423911,0
492,492,-0.47,-1.04,-0.18,2024-03-22 15:59:48.681,1.1553787257864843,0
493,493,-0.44,-1.08,-0.17,2024-03-22 15:59:48.716,1.178516016013359,0
494,494,-0.34,-1.08,-0.15,2024-03-22 15:59:48.720,1.1421471008587292,0
495,495,-0.13,-1.06,-0.16,2024-03-22 15:59:48.724,1.0798611021793498,0
496,496,0.08,-0.95,-0.1,2024-03-22 15:59:48.728,0.9585927185202274,0
497,497,0.28,-0.87,-0.1,2024-03-22 15:59:48.768,0.9194019795497507,0
498,498,0.48,-0.76,-0.1,2024-03-22 15:59:48.772,0.904433524367601,0
499,499,0.66,-0.76,-0.08,2024-03-22 15:59:48.814,1.009752444909147,0
500,500,0.78,-0.73,-0.08,2024-03-22 15:59:48.817,1.0713076122197582,0
501,501,0.98,-0.68,-0.05,2024-03-22 15:59:48.837,1.193859288191033,0
502,502,1.3,-0.53,-0.04,2024-03-22 15:59:48.844,1.4044571905188141,0
503,503,1.51,-0.09,-0.18,2024-03-22 15:59:48.848,1.5233515680892578,0
504,504,3.12,10.39,-2.44,2024-03-22 15:59:48.852,11.119356995797915,0
505,505,3.42,7.99,-1.42,2024-03-22 15:59:48.898,8.806412436401104,0
506,506,-0.18,3.87,-1.1,2024-03-22 15:59:48.902,4.027319207611932,0
507,507,0.01,2.55,-0.09,2024-03-22 15:59:48.906,2.551607336562583,0
508,508,0.49,2.18,0.44,2024-03-22 15:59:48.940,2.2773010341191173,0
509,509,0.62,2.17,0.78,2024-03-22 15:59:48.944,2.3878232765428855,0
510,510,0.88,2.27,0.74,2024-03-22 15:59:48.947,2.54458248048673,0
511,511,0.76,1.82,0.32,2024-03-22 15:59:48.990,1.9980990966416055,0
512,512,0.43,1.2,0.16,2024-03-22 15:59:48.993,1.2847178678604887,0
513,513,0.3,0.99,0.09,2024-03-22 15:59:48.997,1.0383640979926068,0
514,514,0.34,0.86,0.02,2024-03-22 15:59:49.032,0.9249864863877741,0
515,515,0.29,0.64,0.0,2024-03-22 15:59:49.037,0.7026378868236469,0
516,516,0.23,0.48,0.02,2024-03-22 15:59:49.041,0.532634959423431,0
517,517,0.15,0.43,-0.08,2024-03-22 15:59:49.082,0.46238512086787564,0
518,518,0.1,0.15,-0.02,2024-03-22 15:59:49.085,0.18138357147217055,0
519,519,-0.04,0.01,-0.03,2024-03-22 15:59:49.089,0.05099019513592785,0
520,520,-0.12,-0.11,-0.07,2024-03-22 15:59:49.126,0.1772004514666935,0
521,521,-0.19,-0.22,-0.06,2024-03-22 15:59:49.130,0.2968164415931166,0
522,522,-0.29,-0.3,-0.1,2024-03-22 15:59:49.134,0.42906875905849867,0
523,523,-0.31,-0.4,-0.09,2024-03-22 15:59:49.165,0.514003891035856,0
524,524,-0.36,-0.44,-0.06,2024-03-22 15:59:49.169,0.5716642371182581,0
525,525,-0.37,-0.48,-0.05,2024-03-22 15:59:49.173,0.6081118318204308,0
526,526,-0.38,-0.59,-0.01,2024-03-22 15:59:49.210,0.7018546858146635,0
527,527,-0.37,-0.63,-0.01,2024-03-22 15:59:49.214,0.7306846104852627,0
528,528,-0.3,-0.66,-0.01,2024-03-22 15:59:49.218,0.7250517222929685,0
529,529,-0.22,-0.78,-0.02,2024-03-22 15:59:49.252,0.8106787279804497,0
530,530,-0.13,-0.96,-0.09,2024-03-22 15:59:49.256,0.9729337079164233,0
531,531,-0.05,-1.35,-0.1,2024-03-22 15:59:49.259,1.3546217184144067,0
532,532,-0.15,-1.59,-0.1,2024-03-22 15:59:49.304,1.6001874890149592,0
533,533,0.08,-1.68,0.15,2024-03-22 15:59:49.307,1.688579284487406,0
534,534,0.57,-1.5,0.24,2024-03-22 15:59:49.312,1.622498073958795,0
535,535,1.15,-1.31,0.25,2024-03-22 15:59:49.352,1.760994037468611,0
536,536,1.59,-0.96,0.15,2024-03-22 15:59:49.355,1.8633840183923442,0
537,537,6.99,13.7,-1.18,2024-03-22 15:59:49.359,15.42538492226369,0
538,538,5.83,10.06,-0.52,2024-03-22 15:59:49.392,11.638853036274664,0
539,539,1.38,3.2,-0.0,2024-03-22 15:59:49.396,3.484881633570931,0
540,540,0.44,1.86,0.13,2024-03-22 15:59:49.400,1.9157505056765614,0
541,541,0.35,1.77,0.39,2024-03-22 15:59:49.437,1.8459414941974732,0
542,542,0.76,1.64,0.48,2024-03-22 15:59:49.442,1.8701871564097534,0
543,543,1.1,2.13,0.38,2024-03-22 15:59:49.446,2.4272000329597887,0
544,544,1.15,2.19,0.19,2024-03-22 15:59:49.483,2.48086678400917,0
545,545,0.95,1.9,-0.08,2024-03-22 15:59:49.487,2.125770448566825,0
546,546,0.64,1.38,-0.19,2024-03-22 15:59:49.491,1.533003587732266,0
547,547,0.46,0.95,-0.18,2024-03-22 15:59:49.528,1.0707474025184465,0
548,548,0.42,0.81,-0.16,2024-03-22 15:59:49.532,0.9263368717696603,0
549,549,0.4,0.46,-0.12,2024-03-22 15:59:49.537,0.6212889826803627,0
550,550,0.34,0.24,-0.14,2024-03-22 15:59:49.581,0.439089968002003,0
551,551,0.27,-0.1,-0.18,2024-03-22 15:59:49.584,0.3395585369269929,0
552,552,0.06,-0.32,-0.21,2024-03-22 15:59:49.587,0.3874274125562103,0
553,553,-0.02,-0.51,-0.24,2024-03-22 15:59:49.619,0.564003546088143,0
554,554,-0.11,-0.6,-0.22,2024-03-22 15:59:49.627,0.648459713474939,0
555,555,-0.13,-0.74,-0.21,2024-03-22 15:59:49.631,0.7801281945936834,0
556,556,-0.17,-0.98,-0.18,2024-03-22 15:59:49.663,1.0107917688624102,0
557,557,-0.32,-1.33,-0.28,2024-03-22 15:59:49.667,1.3963165830140385,0
558,558,-0.51,-1.66,-0.37,2024-03-22 15:59:49.671,1.7755562508690057,0
559,559,-0.46,-1.78,-0.38,2024-03-22 15:59:49.703,1.877338541659442,0
560,560,-0.23,-1.84,-0.31,2024-03-22 15:59:49.705,1.8800531907369005,0
561,561,0.04,-1.87,-0.23,2024-03-22 15:59:49.707,1.8845158529447292,0
562,562,0.43,-1.88,-0.09,2024-03-22 15:59:49.744,1.9306475597581243,0
563,563,0.74,-1.87,0.01,2024-03-22 15:59:49.745,2.011119091451324,0
564,564,1.2,-1.74,0.26,2024-03-22 15:59:49.748,2.1296009015775703,0
565,565,1.61,-1.59,0.44,2024-03-22 15:59:49.793,2.305168106668145,0
566,566,2.18,-1.15,0.55,2024-03-22 15:59:49.796,2.5253514606881953,0
567,567,2.5,-0.97,0.89,2024-03-22 15:59:49.800,2.825420322713065,0
568,568,8.5,10.86,-0.39,2024-03-22 15:59:49.839,13.79643794607869,0
569,569,0.13,3.48,1.2,2024-03-22 15:59:49.842,3.6833815984771383,0
570,570,-1.69,-0.0,-0.62,2024-03-22 15:59:49.846,1.8001388835309344,0
571,571,-1.18,-0.17,-0.38,2024-03-22 15:59:49.884,1.2512793453102309,0
572,572,0.51,0.56,0.76,2024-03-22 15:59:49.887,1.0729864864013898,0
573,573,1.0,1.08,1.12,2024-03-22 15:59:49.891,1.849540483471503,0
574,574,1.2,1.88,0.89,2024-03-22 15:59:49.928,2.4013537848472053,0
575,575,1.19,2.11,0.65,2024-03-22 15:59:49.931,2.5081267910534346,0
576,576,1.03,2.17,0.43,2024-03-22 15:59:49.935,2.440225399425225,0
577,577,0.85,2.26,0.16,2024-03-22 15:59:49.974,2.4198553675788146,0
578,578,0.58,2.08,0.02,2024-03-22 15:59:49.978,2.159444372981161,0
579,579,0.46,1.73,-0.02,2024-03-22 15:59:49.982,1.7902234497402831,0
580,580,0.51,1.47,0.02,2024-03-22 15:59:50.020,1.5560848305924713,0
581,581,0.56,1.23,0.05,2024-03-22 15:59:50.023,1.352405264704334,0
582,582,0.53,0.91,0.02,2024-03-22 15:59:50.027,1.0532805893967665,0
583,583,0.41,0.56,-0.03,2024-03-22 15:59:50.065,0.6946941773183363,0
584,584,0.33,0.29,-0.06,2024-03-22 15:59:50.068,0.44339598554790727,0
585,585,0.29,0.01,-0.09,2024-03-22 15:59:50.072,0.3038091506192662,0
586,586,0.3,-0.29,-0.12,2024-03-22 15:59:50.076,0.43416586692184816,0
587,587,0.31,-0.54,-0.13,2024-03-22 15:59:50.112,0.6360817557515701,0
588,588,0.31,-1.19,-0.05,2024-03-22 15:59:50.116,1.230731489805961,0
589,589,0.32,-1.65,0.11,2024-03-22 15:59:50.162,1.684339633209407,0
590,590,0.35,-1.92,0.23,2024-03-22 15:59:50.166,1.9651463049859672,0
591,591,0.53,-2.18,0.17,2024-03-22 15:59:50.170,2.24993333234565,0
592,592,0.7,-2.33,0.14,2024-03-22 15:59:50.198,2.436903773233568,0
593,593,0.86,-2.67,0.17,2024-03-22 15:59:50.199,2.810231307205868,0
594,594,1.34,-2.91,0.33,2024-03-22 15:59:50.202,3.2206521078812598,0
595,595,1.76,-3.2,0.41,2024-03-22 15:59:50.204,3.675010204067467,0
596,596,2.14,-3.23,0.57,2024-03-22 15:59:50.243,3.9162992735489457,0
597,597,2.75,-2.95,0.74,2024-03-22 15:59:50.244,4.100317060911266,0
598,598,4.58,15.97,6.68,2024-03-22 15:59:50.246,17.90641505159534,0
599,599,-0.15,4.12,-0.18,2024-03-22 15:59:50.284,4.126657242854075,0
600,600,-3.81,-3.79,-1.09,2024-03-22 15:59:50.285,5.483456938829738,0
601,601,-1.49,-1.07,-0.48,2024-03-22 15:59:50.286,1.8961540021844219,0
602,602,1.79,0.42,0.28,2024-03-22 15:59:50.287,1.8598118184375536,0
603,603,2.42,1.33,1.29,2024-03-22 15:59:50.333,3.047851702429106,0
604,604,2.62,1.33,1.39,2024-03-22 15:59:50.334,3.2504461232267796,0
605,605,2.41,1.57,0.99,2024-03-22 15:59:50.374,3.0418908593176055,0
606,606,2.06,1.39,0.84,2024-03-22 15:59:50.375,2.623223208192547,0
607,607,2.19,1.57,0.53,2024-03-22 15:59:50.376,2.7462519913511216,0
608,608,2.27,1.67,0.42,2024-03-22 15:59:50.420,2.8492455141668644,0
609,609,2.08,1.39,0.34,2024-03-22 15:59:50.421,2.5246980017419904,0
610,610,1.98,0.98,0.11,2024-03-22 15:59:50.422,2.2119900542271886,0
611,611,1.59,0.56,0.04,2024-03-22 15:59:50.521,1.6862087652482418,0
612,612,1.2,0.34,-0.11,2024-03-22 15:59:50.525,1.252078272313676,0
613,613,1.28,0.28,-0.07,2024-03-22 15:59:50.529,1.3121356637177424,0
614,614,1.27,0.26,-0.04,2024-03-22 15:59:50.580,1.2969579792730372,0
615,615,0.89,-0.25,-0.0,2024-03-22 15:59:50.582,0.9244457799135654,0
616,616,0.76,-0.38,0.05,2024-03-22 15:59:50.610,0.8511756575466664,0
617,617,0.63,-0.54,0.08,2024-03-22 15:59:50.613,0.8336066218546971,0
618,618,0.26,-0.6,-0.12,2024-03-22 15:59:50.618,0.6648308055437865,0
619,619,-0.06,-0.76,-0.2,2024-03-22 15:59:50.654,0.7881624198095213,0
620,620,-0.16,-0.65,-0.2,2024-03-22 15:59:50.657,0.6986415389883428,0
621,621,-0.27,-0.73,-0.13,2024-03-22 15:59:50.660,0.7891134265744056,0
622,622,-0.39,-0.77,0.03,2024-03-22 15:59:50.706,0.8636550237218562,0
623,623,-0.27,-0.57,0.3,2024-03-22 15:59:50.709,0.6984268036093689,0
624,624,-0.19,-0.5,0.4,2024-03-22 15:59:50.713,0.6679071791798619,0
625,625,-0.18,-0.45,0.57,2024-03-22 15:59:50.741,0.7481978348003955,0
626,626,-0.06,-0.34,0.68,2024-03-22 15:59:50.745,0.7626270385975048,0
627,627,-0.01,-0.45,0.85,2024-03-22 15:59:50.749,0.9618211892030659,0
628,628,0.08,-0.39,0.88,2024-03-22 15:59:50.793,0.9658674857349738,0
629,629,0.25,-0.57,1.21,2024-03-22 15:59:50.796,1.3606983501129117,0
630,630,0.49,-0.68,1.48,2024-03-22 15:59:50.801,1.7008527273106275,0
631,631,0.94,-0.66,1.68,2024-03-22 15:59:50.804,2.0350921355064,0
632,632,1.38,-0.67,1.72,2024-03-22 15:59:50.832,2.30471256342304,0
633,633,1.78,-0.85,1.66,2024-03-22 15:59:50.837,2.5780806814372585,0
634,634,2.09,-1.07,1.3,2024-03-22 15:59:50.879,2.683840531775314,0
635,635,2.67,-1.1,0.33,2024-03-22 15:59:50.882,2.9065099346123007,0
636,636,3.46,2.59,-2.96,2024-03-22 15:59:50.884,5.238444425590482,0
637,637,3.0,0.17,-14.08,2024-03-22 15:59:50.887,14.397058727392897,0
638,638,0.95,-1.14,-2.99,2024-03-22 15:59:50.921,3.3379934092205756,0
639,639,0.87,0.45,-2.03,2024-03-22 15:59:50.925,2.253952084672609,0
640,640,0.68,0.22,-1.2,2024-03-22 15:59:50.971,1.396710420953463,0
641,641,1.0,0.62,-1.29,2024-03-22 15:59:50.975,1.745995418092499,0
642,642,1.41,0.62,-0.97,2024-03-22 15:59:50.979,1.8202747045432455,0
643,643,1.75,0.72,-0.87,2024-03-22 15:59:51.014,2.0827385817716055,0
644,644,1.48,0.6,-0.78,2024-03-22 15:59:51.018,1.7773013250431116,0
645,645,1.16,0.45,-0.66,2024-03-22 15:59:51.022,1.4084388520628077,0
646,646,1.14,-0.54,-0.54,2024-03-22 15:59:51.057,1.3721515951235126,0
647,647,0.78,0.34,-0.83,2024-03-22 15:59:51.061,1.1886547017532048,0
648,648,0.9,0.18,-0.47,2024-03-22 15:59:51.065,1.0311643903859364,0
649,649,0.74,0.08,-0.3,2024-03-22 15:59:51.109,0.8024961059095551,0
650,650,0.79,0.08,-0.12,2024-03-22 15:59:51.112,0.8030566605165541,0
651,651,0.68,-0.01,-0.02,2024-03-22 15:59:51.116,0.6803675477269622,0
652,652,0.64,-0.58,0.09,2024-03-22 15:59:51.149,0.8683893136145792,0
653,653,0.8,0.32,0.06,2024-03-22 15:59:51.153,0.8637129152675674,0
654,654,0.8,0.09,0.2,2024-03-22 15:59:51.157,0.8295179322956197,0
655,655,0.67,0.17,0.21,2024-03-22 15:59:51.195,0.7224264668462805,0
656,656,0.72,0.18,0.51,2024-03-22 15:59:51.199,0.900499861188218,0
657,657,0.94,-0.07,0.9,2024-03-22 15:59:51.203,1.3032651303552936,0
658,658,0.61,0.98,1.04,2024-03-22 15:59:51.238,1.5537374295549427,0
659,659,0.87,0.04,1.06,2024-03-22 15:59:51.242,1.3718964975536603,0
660,660,0.76,0.06,1.12,2024-03-22 15:59:51.246,1.354843164355196,0
661,661,0.84,0.03,1.16,2024-03-22 15:59:51.290,1.4325152704247168,0
662,662,1.01,0.08,1.43,2024-03-22 15:59:51.293,1.7525410123589118,0
663,663,1.04,0.17,1.68,2024-03-22 15:59:51.297,1.9831540535218135,0
664,664,1.17,0.1,1.87,2024-03-22 15:59:51.326,2.208121373475652,0
665,665,1.28,0.09,1.85,2024-03-22 15:59:51.331,2.251443981093023,0
666,666,1.43,-0.0,1.74,2024-03-22 15:59:51.335,2.2522211259110416,0
667,667,1.72,-0.05,1.45,2024-03-22 15:59:51.374,2.2501999911119013,0
668,668,2.11,-0.14,0.88,2024-03-22 15:59:51.377,2.2904366395951667,0
669,669,2.2,-0.27,0.6,2024-03-22 15:59:51.381,2.2962795997003504,0
670,670,2.34,-0.24,-0.05,2024-03-22 15:59:51.418,2.352806834400138,0
671,671,1.71,-0.25,-10.93,2024-03-22 15:59:51.422,11.065780587016896,0
672,672,6.73,-2.2,-13.05,2024-03-22 15:59:51.426,14.847067050431207,0
673,673,0.54,1.02,-0.74,2024-03-22 15:59:51.462,1.3709850473291092,0
674,674,1.57,0.63,-0.08,2024-03-22 15:59:51.466,1.693576098083579,0
675,675,1.35,0.93,-0.32,2024-03-22 15:59:51.470,1.6702694393420483,0
676,676,1.38,0.98,-0.33,2024-03-22 15:59:51.506,1.7244419387152472,0
677,677,1.28,1.02,-0.47,2024-03-22 15:59:51.509,1.7028505512815855,0
678,678,1.26,0.87,-0.47,2024-03-22 15:59:51.513,1.601686611044745,0
679,679,1.15,0.72,-0.43,2024-03-22 15:59:51.552,1.4233060106667152,0
680,680,1.15,0.69,-0.39,2024-03-22 15:59:51.556,1.3966746220934925,0
681,681,1.14,0.66,-0.2,2024-03-22 15:59:51.599,1.3323663159957173,0
682,682,1.04,0.45,-0.41,2024-03-22 15:59:51.642,1.2050726119201283,0
683,683,1.04,0.38,-0.26,2024-03-22 15:59:51.647,1.1373653766490346,0
684,684,1.01,0.28,-0.13,2024-03-22 15:59:51.651,1.0561249926026748,0
685,685,0.94,0.1,0.05,2024-03-22 15:59:51.654,0.9466255859631092,0
686,686,0.96,-0.03,0.16,2024-03-22 15:59:51.686,0.9737042672187485,0
687,687,0.9,-0.32,0.3,2024-03-22 15:59:51.690,1.0011992808627062,0
688,688,0.91,-0.25,0.62,2024-03-22 15:59:51.694,1.1291589790636216,0
689,689,1.0,-0.51,1.02,2024-03-22 15:59:51.736,1.5167399249706588,0
690,690,0.92,-0.54,1.22,2024-03-22 15:59:51.739,1.6206171663906317,0
691,691,0.89,-0.52,1.4,2024-03-22 15:59:51.744,1.738533865071371,0
692,692,0.8,-0.61,1.54,2024-03-22 15:59:51.747,1.839483623194292,0
693,693,0.79,-0.64,1.7,2024-03-22 15:59:51.779,1.9808331580423424,0
694,694,0.96,-0.56,1.85,2024-03-22 15:59:51.783,2.1581705215297515,0
695,695,1.11,-0.45,2.02,2024-03-22 15:59:51.788,2.3484037131634756,0
696,696,1.38,-0.42,2.19,2024-03-22 15:59:51.828,2.6223844111800236,0
697,697,1.81,-0.31,2.16,2024-03-22 15:59:51.831,2.8351014091210214,0
698,698,2.17,-0.17,1.73,2024-03-22 15:59:51.835,2.780413638291972,0
699,699,2.47,-0.16,0.96,2024-03-22 15:59:51.873,2.654825794661488,0
700,700,2.62,-0.13,0.2,2024-03-22 15:59:51.876,2.630836368913886,0
701,701,2.38,0.72,-11.02,2024-03-22 15:59:51.881,11.297043861116942,0
702,702,-0.07,0.89,-7.16,2024-03-22 15:59:51.910,7.215441774416865,0
703,703,1.45,-0.09,-0.77,2024-03-22 15:59:51.914,1.6442323436789583,0
704,704,1.0,0.56,0.65,2024-03-22 15:59:51.918,1.3176114753598651,0
705,705,1.54,1.18,-0.12,2024-03-22 15:59:51.962,1.9438106903708499,0
706,706,1.24,0.84,-0.44,2024-03-22 15:59:51.965,1.5610253040870286,0
707,707,0.96,0.56,-0.83,2024-03-22 15:59:51.969,1.3871193171461496,0
708,708,0.96,0.5,-0.99,2024-03-22 15:59:52.010,1.4668674105044395,0
709,709,1.02,0.56,-1.04,2024-03-22 15:59:52.014,1.5606408939919523,0
710,710,1.06,0.72,-1.15,2024-03-22 15:59:52.017,1.7217723426748381,0
711,711,1.17,0.83,-1.12,2024-03-22 15:59:52.046,1.8199450541156454,0
712,712,1.28,0.81,-0.95,2024-03-22 15:59:52.051,1.78801565988668,0
713,713,1.29,0.71,-0.79,2024-03-22 15:59:52.096,1.671017654006085,0
714,714,1.19,0.57,-0.83,2024-03-22 15:59:52.100,1.5588136514670379,0
715,715,1.21,0.47,-0.49,2024-03-22 15:59:52.105,1.3874797295816612,0
716,716,1.2,0.34,-0.32,2024-03-22 15:59:52.138,1.2876334882255898,0
717,717,1.11,0.11,-0.19,2024-03-22 15:59:52.142,1.1315034246523517,0
718,718,1.05,-0.1,-0.17,2024-03-22 15:59:52.187,1.068363234110946,0
719,719,0.94,-0.3,-0.19,2024-03-22 15:59:52.190,1.004838295448576,0
720,720,0.87,-0.52,-0.18,2024-03-22 15:59:52.194,1.0294173109094291,0
721,721,0.83,-0.63,-0.2,2024-03-22 15:59:52.198,1.061037228376083,0
722,722,0.93,-0.71,-0.24,2024-03-22 15:59:52.232,1.1944036168732914,0
723,723,0.96,-0.77,-0.29,2024-03-22 15:59:52.236,1.2643575443678896,0
724,724,0.93,-0.88,-0.37,2024-03-22 15:59:52.240,1.3327415353323389,0
725,725,0.78,-1.22,-0.55,2024-03-22 15:59:52.271,1.5489673979784082,0
726,726,0.5,-1.51,-0.68,2024-03-22 15:59:52.275,1.7298843892006195,0
727,727,0.29,-1.87,-0.75,2024-03-22 15:59:52.279,2.0355588913121627,0
728,728,0.13,-2.13,-0.75,2024-03-22 15:59:52.326,2.261923959818278,0
729,729,0.05,-2.33,-0.73,2024-03-22 15:59:52.329,2.442191638672117,0
730,730,0.04,-2.48,-0.52,2024-03-22 15:59:52.333,2.5342454498331453,0
731,731,0.22,-2.46,-0.18,2024-03-22 15:59:52.417,2.4763683086326234,0
732,732,0.45,-2.43,0.34,2024-03-22 15:59:52.451,2.4945941553687647,0
733,733,0.84,-2.4,0.88,2024-03-22 15:59:52.455,2.690724809414742,0
734,734,1.26,-2.43,1.96,2024-03-22 15:59:52.459,3.3666155111625087,0
735,735,-2.36,-3.85,0.64,2024-03-22 15:59:52.464,4.560888071417671,0
736,736,0.08,-0.59,1.96,2024-03-22 15:59:52.496,2.048438429633656,0
737,737,1.44,0.56,2.06,2024-03-22 15:59:52.500,2.5750339803583175,0
738,738,1.26,0.39,1.53,2024-03-22 15:59:52.543,2.0200495043438913,0
739,739,0.99,0.04,1.19,2024-03-22 15:59:52.547,1.5484831287424479,0
740,740,0.97,-0.04,1.03,2024-03-22 15:59:52.551,1.4154151334502538,0
741,741,1.11,0.03,0.96,2024-03-22 15:59:52.554,1.4678555787270082,0
742,742,1.37,0.08,0.9,2024-03-22 15:59:52.558,1.6411276610916046,0
743,743,1.27,0.04,0.82,2024-03-22 15:59:52.637,1.5122499793354272,0
744,744,1.2,-0.03,0.62,2024-03-22 15:59:52.641,1.3510366390294528,0
745,745,1.1,-0.17,0.39,2024-03-22 15:59:52.645,1.1794066304714417,0
746,746,1.0,-0.35,0.4,2024-03-22 15:59:52.679,1.1324751652906127,0
747,747,0.85,-0.67,0.27,2024-03-22 15:59:52.684,1.1154819586169917,0
748,748,0.83,-0.77,0.18,2024-03-22 15:59:52.688,1.1463856244737196,0
749,749,0.76,-0.94,0.06,2024-03-22 15:59:52.691,1.2102892216325813,0
750,750,0.57,-1.21,-0.09,2024-03-22 15:59:52.728,1.3405595846511262,0
751,751,0.43,-1.47,-0.23,2024-03-22 15:59:52.732,1.5487737084545308,0
752,752,0.34,-1.86,-0.36,2024-03-22 15:59:52.736,1.9247857023575379,0
753,753,0.17,-2.22,-0.58,2024-03-22 15:59:52.768,2.3008042072284205,0
754,754,0.01,-2.59,-0.79,2024-03-22 15:59:52.772,2.7078220030127533,0
755,755,-0.16,-2.9,-0.98,2024-03-22 15:59:52.776,3.065289545866752,0
756,756,-0.1,-2.93,-0.97,2024-03-22 15:59:52.816,3.088009067344201,0
757,757,0.25,-2.79,-0.6,2024-03-22 15:59:52.820,2.8647163908491886,0
758,758,0.58,-2.49,-0.23,2024-03-22 15:59:52.824,2.56698266453048,0
759,759,0.91,-2.17,0.12,2024-03-22 15:59:52.907,2.3561409125941513,0
760,760,1.26,-1.66,0.59,2024-03-22 15:59:52.911,2.165940904087644,0
761,761,1.64,-1.34,0.92,2024-03-22 15:59:52.914,2.309025768587263,0
762,762,9.63,-2.16,2.83,2024-03-22 15:59:52.916,10.267005405667225,0
763,763,-0.69,-0.84,1.02,2024-03-22 15:59:52.949,1.4906709898565813,0
764,764,0.45,-0.05,1.21,2024-03-22 15:59:52.952,1.2919365309487925,0
765,765,1.12,0.22,1.11,2024-03-22 15:59:52.956,1.5921369287847074,0
766,766,1.07,0.51,0.98,2024-03-22 15:59:52.990,1.537985695642193,0
767,767,0.91,0.14,0.92,2024-03-22 15:59:52.994,1.3015759678174763,0
768,768,0.8,-0.14,0.72,2024-03-22 15:59:52.998,1.0853570840972109,0
769,769,0.91,-0.0,0.79,2024-03-22 15:59:53.035,1.2050726119201283,0
770,770,0.97,-0.03,0.78,2024-03-22 15:59:53.039,1.2450702791409005,0
771,771,0.95,-0.2,0.52,2024-03-22 15:59:53.042,1.1013173929435602,0
772,772,0.91,-0.15,0.44,2024-03-22 15:59:53.087,1.0218610473053564,0
773,773,0.86,-0.19,0.34,2024-03-22 15:59:53.090,0.9440868604106298,0
774,774,0.76,-0.27,0.24,2024-03-22 15:59:53.094,0.841486779456457,0
775,775,0.59,-0.38,0.17,2024-03-22 15:59:53.127,0.7220803279414278,0
776,776,0.5,-0.44,0.1,2024-03-22 15:59:53.131,0.6734983296193094,0
777,777,0.46,-0.39,0.22,2024-03-22 15:59:53.135,0.6419501538281613,0
778,778,0.55,-0.14,0.4,2024-03-22 15:59:53.138,0.6943342134735981,0
779,779,0.71,0.06,0.6,2024-03-22 15:59:53.169,0.9315041599477697,0
780,780,0.88,0.3,0.81,2024-03-22 15:59:53.173,1.2330855606972293,0
781,781,1.06,0.32,1.12,2024-03-22 15:59:53.217,1.5749285698088027,0
782,782,1.22,0.2,1.52,2024-03-22 15:59:53.221,1.9592855840841579,0
783,783,1.29,-0.02,1.63,2024-03-22 15:59:53.226,2.0787977294580635,0
784,784,1.04,-0.5,1.4,2024-03-22 15:59:53.269,1.8142767153882562,0
785,785,0.72,-0.88,1.1,2024-03-22 15:59:53.272,1.5820240200452078,0
786,786,0.47,-1.56,0.95,2024-03-22 15:59:53.276,1.886001060445089,0
787,787,0.26,-1.9,0.94,2024-03-22 15:59:53.305,2.1356966076669224,0
788,788,0.11,-2.32,0.98,2024-03-22 15:59:53.310,2.520892699025486,0
789,789,-0.0,-2.85,0.87,2024-03-22 15:59:53.313,2.9798322100413643,0
790,790,0.05,-2.9,0.68,2024-03-22 15:59:53.349,2.979077038278802,0
791,791,0.23,-2.78,0.49,2024-03-22 15:59:53.353,2.832207619508146,0
792,792,0.75,-2.38,0.43,2024-03-22 15:59:53.357,2.532153233909828,0
793,793,1.24,-1.79,0.63,2024-03-22 15:59:53.401,2.266848031959796,0
794,794,1.95,-1.08,0.96,2024-03-22 15:59:53.404,2.427035228421705,0
795,795,2.44,6.32,7.23,2024-03-22 15:59:53.409,9.908022002397855,0
796,796,7.22,6.88,0.63,2024-03-22 15:59:53.442,9.992982537761186,0
797,797,-1.5,0.43,1.11,2024-03-22 15:59:53.446,1.9149412523625888,0
798,798,0.08,-0.28,0.65,2024-03-22 15:59:53.450,0.7122499561249548,0
799,799,1.51,0.42,1.25,2024-03-22 15:59:53.488,2.0047443727318455,0
800,800,1.4,-0.09,1.88,2024-03-22 15:59:53.492,2.34574082114798,0
801,801,1.03,-0.29,1.58,2024-03-22 15:59:53.495,1.90824526725471,0
802,802,1.07,0.11,1.19,2024-03-22 15:59:53.537,1.6040885262353821,0
803,803,1.14,0.22,1.0,2024-03-22 15:59:53.541,1.5323185047502363,0
804,804,1.07,0.25,0.8,2024-03-22 15:59:53.545,1.359190935814391,0
805,805,1.04,0.31,0.69,2024-03-22 15:59:53.578,1.286001555209013,0
806,806,1.04,0.3,0.62,2024-03-22 15:59:53.582,1.2473972903610142,0
807,807,0.99,0.28,0.58,2024-03-22 15:59:53.586,1.181058846967415,0
808,808,0.88,0.16,0.53,2024-03-22 15:59:53.622,1.0396634070698074,0
809,809,0.78,0.02,0.47,2024-03-22 15:59:53.626,0.9108786966440702,0
810,810,0.74,-0.09,0.39,2024-03-22 15:59:53.629,0.8413085046521281,0
811,811,0.74,-0.21,0.34,2024-03-22 15:59:53.715,0.841011296000238,0
812,812,0.73,-0.34,0.35,2024-03-22 15:59:53.719,0.8780660567406076,0
813,813,0.67,-0.44,0.39,2024-03-22 15:59:53.723,0.8914033879226622,0
814,814,0.58,-0.55,0.46,2024-03-22 15:59:53.727,0.9222255689363639,0
815,815,0.27,-1.2,0.54,2024-03-22 15:59:53.756,1.3433167906342867,0
816,816,0.12,-1.65,0.64,2024-03-22 15:59:53.761,1.7738376475878508,0
817,817,0.05,-1.92,0.66,2024-03-22 15:59:53.764,2.0308865059377395,0
818,818,0.11,-2.12,0.64,2024-03-22 15:59:53.807,2.2172279991015813,0
819,819,0.29,-2.23,0.61,2024-03-22 15:59:53.811,2.3300429180596653,0
820,820,0.54,-2.26,0.64,2024-03-22 15:59:53.815,2.410145223840256,0
821,821,0.89,-2.21,0.71,2024-03-22 15:59:53.847,2.486020917047964,0
822,822,1.43,-2.05,0.8,2024-03-22 15:59:53.851,2.624385642393282,0
823,823,1.97,-1.76,0.83,2024-03-22 15:59:53.855,2.7690070422445663,0
824,824,2.8,-1.03,0.65,2024-03-22 15:59:53.895,3.0534243072327825,0
825,825,8.81,15.63,-5.65,2024-03-22 15:59:53.897,18.810515676078634,0
826,826,7.7,6.39,-4.13,2024-03-22 15:59:53.936,10.824924942003062,0
827,827,0.28,2.91,0.21,2024-03-22 15:59:53.940,2.9309725348423177,0
828,828,0.18,0.95,-0.28,2024-03-22 15:59:53.944,1.006628034578811,0
829,829,0.6,0.42,1.06,2024-03-22 15:59:53.984,1.2884098726725126,0
830,830,0.98,0.39,1.11,2024-03-22 15:59:53.988,1.531208672911697,0
831,831,1.09,0.72,0.88,2024-03-22 15:59:53.992,1.5750872991678906,0
832,832,1.15,0.87,0.69,2024-03-22 15:59:54.035,1.598593131475298,0
833,833,1.15,0.95,0.39,2024-03-22 15:59:54.037,1.5417846801677593,0
834,834,1.1,1.02,0.29,2024-03-22 15:59:54.042,1.5279070652366262,0
835,835,0.96,0.88,0.18,2024-03-22 15:59:54.071,1.3146862743635837,0
836,836,0.95,0.75,0.15,2024-03-22 15:59:54.075,1.2196310917650468,0
837,837,0.91,0.78,0.13,2024-03-22 15:59:54.080,1.2055704044144415,0
838,838,0.87,0.69,0.11,2024-03-22 15:59:54.121,1.11584049039278,0
839,839,0.87,0.64,0.1,2024-03-22 15:59:54.125,1.084665847162157,0
840,840,0.88,0.59,0.14,2024-03-22 15:59:54.128,1.0686907878334126,0
841,841,0.93,0.56,0.19,2024-03-22 15:59:54.159,1.1020889256316844,0
842,842,0.96,0.49,0.25,2024-03-22 15:59:54.163,1.1064357188738982,0
843,843,0.98,0.42,0.29,2024-03-22 15:59:54.167,1.104943437466371,0
844,844,0.95,0.3,0.45,2024-03-22 15:59:54.209,1.0931605554537722,0
845,845,0.89,0.13,0.66,2024-03-22 15:59:54.212,1.1156164215356459,0
846,846,0.75,-0.12,0.96,2024-03-22 15:59:54.216,1.22413234578619,0
847,847,0.66,-0.35,1.3,2024-03-22 15:59:54.250,1.4993665329064805,0
848,848,0.68,-0.49,1.59,2024-03-22 15:59:54.254,1.797386992275175,0
849,849,0.77,-0.55,1.92,2024-03-22 15:59:54.258,2.1405139569738854,0
850,850,0.91,-0.6,2.06,2024-03-22 15:59:54.301,2.3306007809146547,0
851,851,1.13,-0.62,2.19,2024-03-22 15:59:54.304,2.5411414757939,0
852,852,1.38,-0.58,2.22,2024-03-22 15:59:54.309,2.677536180894667,0
853,853,1.72,-0.49,2.17,2024-03-22 15:59:54.343,2.812009957308117,0
854,854,2.21,-0.19,1.73,2024-03-22 15:59:54.347,2.8130232846530085,0
855,855,2.67,0.21,1.0,2024-03-22 15:59:54.352,2.8588459209967927,0
856,856,2.93,0.2,0.15,2024-03-22 15:59:54.384,2.9406461874900898,0
857,857,2.97,0.62,-0.33,2024-03-22 15:59:54.387,3.051917430075722,0
858,858,-2.96,4.5,-15.97,2024-03-22 15:59:54.392,16.853857125299243,0
859,859,0.79,0.86,-1.88,2024-03-22 15:59:54.432,2.2131651542530664,0
860,860,0.4,2.21,-0.49,2024-03-22 15:59:54.436,2.29873878463822,0
861,861,0.7,0.33,0.08,2024-03-22 15:59:54.440,0.7780102827083971,0
862,862,0.71,1.25,-0.29,2024-03-22 15:59:54.478,1.4665265084545864,0
863,863,0.77,0.84,-0.36,2024-03-22 15:59:54.481,1.1950313803411188,0
864,864,0.6,0.63,-0.35,2024-03-22 15:59:54.486,0.9377632963600143,0
865,865,0.58,0.69,-0.45,2024-03-22 15:59:54.522,1.0074720839804943,0
866,866,0.58,0.71,-0.56,2024-03-22 15:59:54.526,1.074290463515338,0
867,867,0.52,0.72,-0.67,2024-03-22 15:59:54.529,1.1125196627475848,0
868,868,0.48,0.7,-0.69,2024-03-22 15:59:54.570,1.0938464243210744,0
869,869,0.53,0.66,-0.55,2024-03-22 15:59:54.574,1.0094552986635912,0
870,870,0.57,0.59,-0.43,2024-03-22 15:59:54.577,0.926228913390205,0
871,871,0.56,0.52,-0.33,2024-03-22 15:59:54.612,0.8324061508662703,0
872,872,0.59,0.49,-0.25,2024-03-22 15:59:54.616,0.8066597795849251,0
873,873,0.64,0.46,-0.13,2024-03-22 15:59:54.621,0.7988116173416608,0
874,874,0.73,0.38,-0.02,2024-03-22 15:59:54.655,0.8232253640407345,0
875,875,0.77,0.3,0.06,2024-03-22 15:59:54.659,0.8285529554590944,0
876,876,0.83,0.23,0.13,2024-03-22 15:59:54.664,0.8710338684574785,0
877,877,0.85,0.22,0.19,2024-03-22 15:59:54.707,0.8983317872590282,0
878,878,0.86,0.24,0.24,2024-03-22 15:59:54.710,0.9245539465060976,0
879,879,0.89,0.25,0.36,2024-03-22 15:59:54.714,0.9920685460188726,0
880,880,0.92,0.23,0.49,2024-03-22 15:59:54.718,1.0674268124794317,0
881,881,0.93,0.21,0.69,2024-03-22 15:59:54.752,1.1769027147559818,0
882,882,0.94,0.16,0.84,2024-03-22 15:59:54.756,1.2707478113300057,0
883,883,0.98,0.12,1.05,2024-03-22 15:59:54.795,1.4412841496387865,0
884,884,1.04,0.06,1.38,2024-03-22 15:59:54.799,1.729045979724079,0
885,885,1.21,0.05,1.67,2024-03-22 15:59:54.803,2.0628863274548115,0
886,886,1.36,0.09,1.94,2024-03-22 15:59:54.836,2.3709280883232204,0
887,887,1.64,0.12,2.05,2024-03-22 15:59:54.840,2.628022069922549,0
888,888,2.01,0.12,1.83,2024-03-22 15:59:54.844,2.7209189624095753,0
889,889,2.31,0.16,1.48,2024-03-22 15:59:54.882,2.748108440364026,0
890,890,2.6,0.28,0.98,2024-03-22 15:59:54.887,2.792633166028077,0
891,891,2.82,0.45,0.25,2024-03-22 15:59:54.891,2.86660077443651,0
892,892,-6.41,8.96,-15.97,2024-03-22 15:59:54.925,19.401304079880816,0
893,893,0.37,0.75,-0.66,2024-03-22 15:59:54.928,1.065363787633126,0
894,894,1.04,0.54,0.93,2024-03-22 15:59:54.933,1.49602807460288,0
895,895,1.34,1.49,0.02,2024-03-22 15:59:54.973,2.0040209579742423,0
896,896,1.27,1.29,-0.36,2024-03-22 15:59:54.977,1.845697700058165,0
897,897,1.04,0.85,-0.44,2024-03-22 15:59:54.981,1.4134001556530267,0
898,898,0.87,0.53,-0.56,2024-03-22 15:59:55.017,1.162497311824849,0
899,899,0.77,0.43,-0.76,2024-03-22 15:59:55.022,1.1642164747159354,0
900,900,0.66,0.51,-0.99,2024-03-22 15:59:55.025,1.294526940623485,0
901,901,0.62,0.46,-0.9,2024-03-22 15:59:55.029,1.1857487086225311,0
902,902,0.61,0.43,-0.84,2024-03-22 15:59:55.059,1.123654751247019,0
903,903,0.62,0.34,-0.72,2024-03-22 15:59:55.063,1.009158064923429,0
904,904,0.63,0.29,-0.58,2024-03-22 15:59:55.107,0.9041017641836565,0
905,905,0.59,0.26,-0.41,2024-03-22 15:59:55.110,0.7640680597957226,0
906,906,0.57,0.2,-0.26,2024-03-22 15:59:55.114,0.6576473218982952,0
907,907,0.56,0.19,-0.12,2024-03-22 15:59:55.154,0.6034069936618236,0
908,908,0.57,0.18,-0.03,2024-03-22 15:59:55.158,0.5984981202978,0
909,909,0.55,0.15,0.05,2024-03-22 15:59:55.162,0.57227615711298,0
910,910,0.53,0.14,0.13,2024-03-22 15:59:55.166,0.563382640840131,0
911,911,0.52,0.13,0.23,2024-03-22 15:59:55.197,0.5832666628567075,0
912,912,0.5,0.1,0.33,2024-03-22 15:59:55.201,0.6073713855624086,0
913,913,0.45,0.1,0.39,2024-03-22 15:59:55.250,0.6038211655780211,0
914,914,0.44,0.09,0.46,2024-03-22 15:59:55.253,0.6428841264178172,0
915,915,0.53,0.09,0.56,2024-03-22 15:59:55.256,0.776273147803014,0
916,916,0.69,0.1,0.83,2024-03-22 15:59:55.339,1.08397416943394,0
917,917,0.81,-0.01,1.06,2024-03-22 15:59:55.342,1.3340914511381896,0
918,918,0.92,-0.24,1.41,2024-03-22 15:59:55.384,1.70061753489725,0
919,919,1.2,-0.37,1.76,2024-03-22 15:59:55.423,2.162059203629725,0
920,920,2.25,-0.14,1.43,2024-03-22 15:59:55.428,2.6696441710460213,0
921,921,2.44,-0.14,0.63,2024-03-22 15:59:55.432,2.5239057034683365,0
922,922,2.94,0.16,-0.69,2024-03-22 15:59:55.436,3.024119706625384,0
923,923,1.03,0.98,-0.07,2024-03-22 15:59:55.467,1.4234465216508838,0
924,924,1.35,1.38,-0.13,2024-03-22 15:59:55.471,1.934890177762035,0
925,925,1.08,1.28,-0.75,2024-03-22 15:59:55.475,1.8350204358535085,0
926,926,0.83,0.92,-1.17,2024-03-22 15:59:55.555,1.7041713528867921,0
927,927,0.63,0.66,-1.25,2024-03-22 15:59:55.559,1.547578754054216,0
928,928,0.69,0.6,-1.19,2024-03-22 15:59:55.602,1.5007331541616584,0
929,929,0.75,0.53,-1.16,2024-03-22 15:59:55.606,1.479526951427381,0
930,930,0.79,0.41,-1.0,2024-03-22 15:59:55.610,1.3387307421584074,0
931,931,0.88,0.38,-0.89,2024-03-22 15:59:55.613,1.3080137613954985,0
932,932,1.02,0.37,-0.6,2024-03-22 15:59:55.648,1.2398790263570072,0
933,933,1.15,0.37,-0.44,2024-03-22 15:59:55.652,1.2856904759700134,0
934,934,1.21,0.35,-0.23,2024-03-22 15:59:55.698,1.2804296154025805,0
935,935,1.16,0.28,0.04,2024-03-22 15:59:55.700,1.193984924527944,0
936,936,1.17,0.29,0.28,2024-03-22 15:59:55.703,1.2374974747448981,0
937,937,1.17,0.29,0.5,2024-03-22 15:59:55.707,1.3049904214207857,0
938,938,1.16,0.29,0.68,2024-03-22 15:59:55.733,1.3755362590640787,0
939,939,1.07,0.25,0.78,2024-03-22 15:59:55.737,1.3475162336684483,0
940,940,0.99,0.17,0.85,2024-03-22 15:59:55.741,1.3158647346897019,0
941,941,0.95,0.12,0.93,2024-03-22 15:59:55.782,1.3348408144793895,0
942,942,1.03,0.18,1.14,2024-03-22 15:59:55.786,1.5469001260585635,0
943,943,1.17,0.31,1.31,2024-03-22 15:59:55.790,1.7835638480301175,0
944,944,1.2,0.2,1.49,2024-03-22 15:59:55.828,1.9235643997537488,0
945,945,1.29,0.07,1.72,2024-03-22 15:59:55.832,2.1511392330576835,0
946,946,1.57,0.02,1.95,2024-03-22 15:59:55.920,2.503557468883029,0
947,947,2.02,0.16,1.85,2024-03-22 15:59:55.923,2.743811217995874,0
948,948,2.25,0.24,1.2,2024-03-22 15:59:55.927,2.5612692166189794,0
949,949,-5.22,8.95,-15.97,2024-03-22 15:59:55.930,19.036591081388494,0
950,950,0.82,1.17,0.04,2024-03-22 15:59:56.055,1.4293005282305047,0
951,951,0.86,1.14,-0.38,2024-03-22 15:59:56.058,1.47770091696527,0
952,952,0.69,0.84,-0.5,2024-03-22 15:59:56.062,1.196536668890678,0
953,953,0.62,0.71,-0.71,2024-03-22 15:59:56.066,1.180084742719776,0
954,954,0.67,0.67,-0.91,2024-03-22 15:59:56.097,1.3137351331223506,0
955,955,0.9,0.49,-0.34,2024-03-22 15:59:56.101,1.0796758772891057,0
956,956,1.0,0.44,-0.19,2024-03-22 15:59:56.105,1.1089183919477574,0
957,957,1.11,0.23,0.05,2024-03-22 15:59:56.147,1.1346805717910218,0
958,958,1.19,-0.01,0.21,2024-03-22 15:59:56.150,1.2084287318663025,0
959,959,1.24,-0.41,0.4,2024-03-22 15:59:56.154,1.3659062925398653,0
960,960,1.21,-0.74,0.53,2024-03-22 15:59:56.194,1.514133415521895,0
961,961,1.14,-1.17,0.46,2024-03-22 15:59:56.198,1.6970857373745145,0
962,962,0.98,-1.33,0.43,2024-03-22 15:59:56.202,1.7071028088548152,0
963,963,0.67,-2.08,-0.01,2024-03-22 15:59:56.234,2.1852688621769176,0
964,964,0.26,-2.84,-0.47,2024-03-22 15:59:56.238,2.8903460000491292,0
965,965,-0.22,-3.02,-0.65,2024-03-22 15:59:56.280,3.0969824022748336,0
966,966,-0.28,-2.81,-0.52,2024-03-22 15:59:56.284,2.871393389976372,0
967,967,-0.0,-2.35,-0.32,2024-03-22 15:59:56.288,2.371687163181519,0
968,968,0.42,-1.66,-0.07,2024-03-22 15:59:56.325,1.7137386031714406,0
969,969,0.76,-1.03,0.19,2024-03-22 15:59:56.329,1.29406336784564,0
970,970,0.89,-0.61,9.42,2024-03-22 15:59:56.333,9.48159269321352,0
971,971,6.19,-1.23,5.21,2024-03-22 15:59:56.372,8.18370942788171,0
972,972,0.82,-2.4,2.68,2024-03-22 15:59:56.375,3.68982384403375,0
973,973,-0.31,-3.35,0.76,2024-03-22 15:59:56.379,3.4490868356711464,0
974,974,0.47,-0.67,1.46,2024-03-22 15:59:56.411,1.6737383308032352,0
975,975,1.48,0.16,1.2,2024-03-22 15:59:56.415,1.9120669444347391,0
976,976,1.57,0.5,0.82,2024-03-22 15:59:56.462,1.840461898546123,0
977,977,1.25,0.16,0.63,2024-03-22 15:59:56.465,1.408900280360537,0
978,978,1.07,-0.2,0.73,2024-03-22 15:59:56.467,1.3106486943494813,0
979,979,1.22,0.02,0.75,2024-03-22 15:59:56.499,1.4322360140703068,0
980,980,1.3,0.12,0.61,2024-03-22 15:59:56.503,1.4410065926289166,0
981,981,1.3,0.1,0.46,2024-03-22 15:59:56.508,1.3826062346163495,0
982,982,1.2,-0.02,0.26,2024-03-22 15:59:56.544,1.2280065146407002,0
983,983,1.08,-0.14,0.08,2024-03-22 15:59:56.549,1.091970695577496,0
984,984,0.9,-0.21,0.0,2024-03-22 15:59:56.553,0.9241753080449618,0
985,985,0.72,-0.27,-0.01,2024-03-22 15:59:56.596,0.7690253571892152,0
986,986,0.6,-0.31,-0.02,2024-03-22 15:59:56.600,0.6756478372643547,0
987,987,0.54,-0.33,-0.07,2024-03-22 15:59:56.604,0.6367102951892643,0
988,988,0.44,-0.43,-0.22,2024-03-22 15:59:56.641,0.6533758489567854,0
989,989,0.43,-0.57,-0.24,2024-03-22 15:59:56.645,0.7532595834106592,0
990,990,0.35,-0.85,-0.44,2024-03-22 15:59:56.649,1.0191172650877816,0
991,991,0.19,-1.1,-0.54,2024-03-22 15:59:56.681,1.2400403219250575,0
992,992,0.05,-1.3,-0.65,2024-03-22 15:59:56.686,1.4543039572248988,0
993,993,-0.03,-1.41,-0.73,2024-03-22 15:59:56.689,1.588049117628293,0
994,994,-0.01,-1.52,-0.73,2024-03-22 15:59:56.732,1.6862384173064022,0
995,995,0.14,-1.81,-0.71,2024-03-22 15:59:56.735,1.949307569369185,0
996,996,0.29,-1.94,-0.63,2024-03-22 15:59:56.739,2.060242704149198,0
997,997,0.63,-1.76,-0.37,2024-03-22 15:59:56.771,1.9056232576246543,0
998,998,1.32,-1.47,0.04,2024-03-22 15:59:56.775,1.9760819821049935,0
999,999,1.71,-1.34,0.45,2024-03-22 15:59:56.779,2.2186031641553203,0
1000,1000,4.92,14.16,15.72,2024-03-22 15:59:56.822,21.721657395327828,0
1001,1001,7.08,-3.85,4.48,2024-03-22 15:59:56.826,9.220591087343589,0
1002,1002,-1.47,-2.05,1.72,2024-03-22 15:59:56.850,3.0531622950639226,0
1003,1003,-0.05,-3.21,0.48,2024-03-22 15:59:56.856,3.246074552440224,0
1004,1004,-0.08,-1.32,1.5,2024-03-22 15:59:56.859,1.9996999774966244,0
1005,1005,1.16,-0.46,1.82,2024-03-22 15:59:56.861,2.2067170185594707,0
1006,1006,1.37,0.08,1.33,2024-03-22 15:59:56.906,1.9110729970359586,0
1007,1007,1.06,-0.17,0.95,2024-03-22 15:59:56.952,1.433527118683145,0
1008,1008,0.79,-0.41,0.9,2024-03-22 15:59:56.956,1.2657803916951786,0
1009,1009,0.86,-0.25,1.02,2024-03-22 15:59:56.960,1.3573871960498227,0
1010,1010,1.04,-0.07,1.03,2024-03-22 15:59:56.963,1.4654009690183776,0
1011,1011,1.1,0.03,0.65,2024-03-22 15:59:56.999,1.2780453826057978,0
1012,1012,0.99,-0.05,0.41,2024-03-22 15:59:57.043,1.072706856508338,0
1013,1013,0.83,-0.2,0.31,2024-03-22 15:59:57.092,0.9082951062292475,0
1014,1014,0.75,-0.26,0.28,2024-03-22 15:59:57.095,0.8417244204607587,0
1015,1015,0.72,-0.32,0.27,2024-03-22 15:59:57.100,0.8328865468957942,0
1016,1016,0.69,-0.49,0.12,2024-03-22 15:59:57.106,0.854751425854324,0
1017,1017,0.42,-1.51,-0.46,2024-03-22 15:59:57.128,1.6334319698108029,0
1018,1018,0.22,-1.64,-0.58,2024-03-22 15:59:57.135,1.7533967035442948,0
1019,1019,0.18,-1.92,-0.68,2024-03-22 15:59:57.136,2.044798278559526,0
1020,1020,0.18,-2.12,-0.81,2024-03-22 15:59:57.180,2.2765983396286664,0
1021,1021,0.23,-2.31,-0.93,2024-03-22 15:59:57.183,2.5007798783579496,0
1022,1022,0.4,-2.37,-0.87,2024-03-22 15:59:57.223,2.556129887153624,0
1023,1023,0.75,-2.26,-0.64,2024-03-22 15:59:57.227,2.4657047674042403,0
1024,1024,1.18,-1.87,-0.28,2024-03-22 15:59:57.232,2.228833775767049,0
1025,1025,1.44,-1.54,-0.12,2024-03-22 15:59:57.236,2.1117765033260505,0
1026,1026,1.71,-1.14,0.19,2024-03-22 15:59:57.261,2.0639282933280407,0
1027,1027,5.88,4.67,12.05,2024-03-22 15:59:57.264,14.198091421032617,0
1028,1028,1.28,-1.75,0.84,2024-03-22 15:59:57.313,2.325188164428849,0
1029,1029,-0.22,-0.95,0.83,2024-03-22 15:59:57.317,1.2805467582247827,0
1030,1030,0.53,-0.59,1.25,2024-03-22 15:59:57.322,1.4803715749770394,0
1031,1031,0.67,-0.19,1.27,2024-03-22 15:59:57.325,1.4484129245487973,0
1032,1032,0.67,-0.21,0.96,2024-03-22 15:59:57.365,1.1893695809125102,0
1033,1033,0.6,-0.28,0.72,2024-03-22 15:59:57.368,0.9781615408509987,0
1034,1034,0.64,-0.36,0.79,2024-03-22 15:59:57.372,1.078563859954523,0
1035,1035,0.75,-0.38,1.12,2024-03-22 15:59:57.397,1.4004642087536547,0
1036,1036,0.81,-0.34,0.94,2024-03-22 15:59:57.399,1.2865846260545786,0
1037,1037,0.8,-0.35,0.73,2024-03-22 15:59:57.403,1.1381564040148435,0
1038,1038,0.77,-0.37,0.53,2024-03-22 15:59:57.446,1.0053357648069623,0
1039,1039,0.75,-0.39,0.44,2024-03-22 15:59:57.449,0.9529952780575568,0
1040,1040,0.73,-0.4,0.36,2024-03-22 15:59:57.496,0.9069178573608527,0
1041,1041,0.72,-0.45,0.26,2024-03-22 15:59:57.500,0.8879752248796134,0
1042,1042,0.71,-0.54,0.19,2024-03-22 15:59:57.505,0.9120307012376283,0
1043,1043,0.64,-0.64,0.06,2024-03-22 15:59:57.508,0.9070832376358854,0
1044,1044,0.65,-0.8,-0.05,2024-03-22 15:59:57.534,1.0319883720275147,0
1045,1045,0.6,-0.87,-0.25,2024-03-22 15:59:57.536,1.0860018416190647,0
1046,1046,0.48,-1.06,-0.39,2024-03-22 15:59:57.539,1.22723265927859,0
1047,1047,0.37,-1.3,-0.48,2024-03-22 15:59:57.582,1.4343291114664027,0
1048,1048,0.27,-1.51,-0.55,2024-03-22 15:59:57.586,1.6295704955601031,0
1049,1049,0.17,-1.68,-0.66,2024-03-22 15:59:57.590,1.8129809706668185,0
1050,1050,0.07,-1.79,-0.85,2024-03-22 15:59:57.628,1.9828010490213082,0
1051,1051,0.18,-1.87,-0.86,2024-03-22 15:59:57.632,2.066131651178114,0
1052,1052,0.37,-1.92,-0.77,2024-03-22 15:59:57.637,2.101475671998132,0
1053,1053,0.61,-1.85,-0.63,2024-03-22 15:59:57.673,2.047315315236029,0
1054,1054,1.06,-1.61,-0.46,2024-03-22 15:59:57.678,1.981741658239035,0
1055,1055,1.37,-1.41,-0.23,2024-03-22 15:59:57.682,1.9793685861910613,0
1056,1056,1.68,-1.17,-0.0,2024-03-22 15:59:57.736,2.0472664701987378,0
1057,1057,1.82,-0.58,14.64,2024-03-22 15:59:57.738,14.764091573815167,0
1058,1058,9.83,-2.62,0.41,2024-03-22 15:59:57.739,10.18142426186042,0
1059,1059,-1.77,-0.22,-0.08,2024-03-22 15:59:57.763,1.7854131174604941,0
1060,1060,0.5,-0.92,0.65,2024-03-22 15:59:57.767,1.2324366109459748,0
1061,1061,0.69,-0.46,1.12,2024-03-22 15:59:57.771,1.3935924798878616,0
1062,1062,0.94,-0.36,1.13,2024-03-22 15:59:57.808,1.5133076356114774,0
1063,1063,0.83,-0.38,1.0,2024-03-22 15:59:57.852,1.353994091567611,0
1064,1064,1.0,-0.52,1.16,2024-03-22 15:59:57.856,1.6174053295324582,0
1065,1065,1.17,-0.45,1.28,2024-03-22 15:59:57.860,1.7915914712902603,0
1066,1066,1.24,-0.45,1.21,2024-03-22 15:59:57.864,1.7900279327429502,0
1067,1067,1.26,-0.51,1.04,2024-03-22 15:59:57.867,1.7115197924651646,0
1068,1068,1.23,-0.64,0.8,2024-03-22 15:59:57.896,1.6007810593582121,0
1069,1069,1.18,-0.86,0.69,2024-03-22 15:59:57.900,1.6149612998459126,0
1070,1070,1.15,-0.8,0.65,2024-03-22 15:59:57.904,1.54434452114805,0
1071,1071,1.1,-0.84,0.63,2024-03-22 15:59:57.940,1.5206906325745548,0
1072,1072,1.08,-0.86,0.57,2024-03-22 15:59:57.943,1.4936197641970328,0
1073,1073,1.03,-0.79,0.46,2024-03-22 15:59:57.946,1.3771710133458372,0
1074,1074,0.96,-0.72,0.33,2024-03-22 15:59:57.984,1.2445481107614924,0
1075,1075,0.91,-0.65,0.18,2024-03-22 15:59:58.034,1.1326958991715297,0
1076,1076,0.88,-0.54,0.05,2024-03-22 15:59:58.037,1.0336827366266692,0
1077,1077,0.83,-0.49,-0.04,2024-03-22 15:59:58.040,0.9646761114488116,0
1078,1078,0.74,-0.55,-0.14,2024-03-22 15:59:58.043,0.9325770745627409,0
1079,1079,0.5,-0.75,-0.44,2024-03-22 15:59:58.073,1.0030453628824572,0
1080,1080,0.41,-0.89,-0.53,2024-03-22 15:59:58.129,1.1140466776576283,0
1081,1081,0.28,-1.03,-0.63,2024-03-22 15:59:58.132,1.2394353553130555,0
1082,1082,0.09,-1.15,-0.79,2024-03-22 15:59:58.135,1.39810586151407,0
1083,1083,0.1,-1.26,-0.83,2024-03-22 15:59:58.139,1.5121177202850313,0
1084,1084,0.23,-1.32,-0.84,2024-03-22 15:59:58.143,1.5814234094637654,0
1085,1085,0.45,-1.37,-0.81,2024-03-22 15:59:58.161,1.653934702459562,0
1086,1086,0.7,-1.3,-0.73,2024-03-22 15:59:58.164,1.6470883400716552,0
1087,1087,1.12,-1.16,-0.45,2024-03-22 15:59:58.210,1.6740669042783207,0
1088,1088,1.53,-0.98,-0.15,2024-03-22 15:59:58.214,1.8231291780891445,0
1089,1089,1.93,-0.77,0.33,2024-03-22 15:59:58.218,2.103972433279486,0
1090,1090,3.6,4.8,11.31,2024-03-22 15:59:58.259,12.802972311147128,0
1091,1091,3.24,-1.58,4.23,2024-03-22 15:59:58.263,5.557598402187766,0
1092,1092,-0.05,-2.24,1.32,2024-03-22 15:59:58.267,2.600480724789169,0
1093,1093,0.44,-0.66,1.28,2024-03-22 15:59:58.307,1.5058552387264852,0
1094,1094,1.02,-0.37,1.43,2024-03-22 15:59:58.310,1.7950487458562232,0
1095,1095,0.91,-0.23,1.23,2024-03-22 15:59:58.314,1.54722331936925,0
1096,1096,0.85,-0.12,0.94,2024-03-22 15:59:58.346,1.2729886095327012,0
1097,1097,0.69,-0.21,0.92,2024-03-22 15:59:58.350,1.169016680804855,0
1098,1098,0.65,-0.29,1.1,2024-03-22 15:59:58.353,1.3101908257959984,0
1099,1099,0.75,-0.18,1.11,2024-03-22 15:59:58.394,1.3516656391282573,0
1100,1100,0.79,-0.14,0.93,2024-03-22 15:59:58.398,1.2282507887235408,0
1101,1101,0.69,-0.18,0.68,2024-03-22 15:59:58.402,0.9853425800197615,0
1102,1102,0.57,-0.23,0.46,2024-03-22 15:59:58.436,0.7677239087067693,0
1103,1103,0.49,-0.26,0.37,2024-03-22 15:59:58.439,0.666783323126786,0
1104,1104,0.45,-0.27,0.35,2024-03-22 15:59:58.443,0.6307931515164064,0
1105,1105,0.41,-0.31,0.33,2024-03-22 15:59:58.480,0.610819122163018,0
1106,1106,0.38,-0.34,0.28,2024-03-22 15:59:58.485,0.5817215828899596,0
1107,1107,0.38,-0.37,0.21,2024-03-22 15:59:58.489,0.5704384278780664,0
1108,1108,0.42,-0.46,0.04,2024-03-22 15:59:58.577,0.6241794613730894,0
1109,1109,0.44,-0.45,0.01,2024-03-22 15:59:58.579,0.6294441992742487,0
1110,1110,0.47,-0.62,-0.03,2024-03-22 15:59:58.583,0.7785884663928692,0
1111,1111,0.42,-0.82,-0.16,2024-03-22 15:59:58.586,0.9350935782048767,0
1112,1112,0.1,-1.89,-0.56,2024-03-22 15:59:58.616,1.9737527707390305,0
1113,1113,0.12,-2.14,-0.61,2024-03-22 15:59:58.620,2.228474814755599,0
1114,1114,0.19,-2.28,-0.64,2024-03-22 15:59:58.624,2.3757314663067457,0
1115,1115,0.37,-2.32,-0.62,2024-03-22 15:59:58.659,2.4297530738739685,0
1116,1116,0.75,-2.17,-0.48,2024-03-22 15:59:58.715,2.345591609807641,0
1117,1117,1.14,-1.97,-0.33,2024-03-22 15:59:58.718,2.299869561518653,0
1118,1118,1.46,-1.72,-0.13,2024-03-22 15:59:58.721,2.259845127436834,0
1119,1119,1.98,-2.93,0.97,2024-03-22 15:59:58.754,3.666906052791645,0
1120,1120,-1.38,-1.4,0.26,2024-03-22 15:59:58.758,1.9829271292712698,0
1121,1121,0.57,-0.85,0.88,2024-03-22 15:59:58.762,1.3497407158413797,0
1122,1122,1.02,-0.47,1.44,2024-03-22 15:59:58.800,1.8261708572858126,0
1123,1123,0.93,-0.29,1.11,2024-03-22 15:59:58.804,1.4768547660484426,0
1124,1124,0.68,-0.32,0.68,2024-03-22 15:59:58.808,1.0135087567455943,0
1125,1125,0.46,-0.55,0.62,2024-03-22 15:59:58.843,0.9478923989567593,0
1126,1126,0.39,-0.6,0.72,2024-03-22 15:59:58.847,1.0151354589413177,0
1127,1127,0.5,-0.49,0.85,2024-03-22 15:59:58.850,1.1011811840019787,0
1128,1128,0.67,-0.35,0.88,2024-03-22 15:59:58.936,1.1600862036935013,0
1129,1129,0.73,-0.29,0.8,2024-03-22 15:59:58.940,1.121160113453917,0
1130,1130,0.71,-0.32,0.68,2024-03-22 15:59:58.945,1.0338762014864256,0
1131,1131,0.57,-0.45,0.52,2024-03-22 15:59:58.948,0.8931965069345044,0
1132,1132,0.5,-0.59,0.49,2024-03-22 15:59:58.977,0.9155326318597279,0
1133,1133,0.52,-0.66,0.45,2024-03-22 15:59:58.981,0.9531526635329726,0
1134,1134,0.5,-0.81,0.35,2024-03-22 15:59:59.027,1.014199191480648,0
1135,1135,0.49,-0.96,0.17,2024-03-22 15:59:59.031,1.091146186356347,0
1136,1136,0.39,-1.11,0.02,2024-03-22 15:59:59.034,1.1766902736064406,0
1137,1137,0.22,-1.29,-0.18,2024-03-22 15:59:59.040,1.3209466302617983,0
1138,1138,0.05,-1.46,-0.31,2024-03-22 15:59:59.066,1.493385415758437,0
1139,1139,-0.02,-1.55,-0.37,2024-03-22 15:59:59.070,1.5936749982352112,0
1140,1140,-0.05,-1.55,-0.39,2024-03-22 15:59:59.074,1.5990934932016951,0
1141,1141,0.05,-1.48,-0.35,2024-03-22 15:59:59.113,1.5216438479486585,0
1142,1142,0.35,-1.39,-0.27,2024-03-22 15:59:59.116,1.4585952145814822,0
1143,1143,0.38,-1.3,-0.22,2024-03-22 15:59:59.121,1.3721515951235126,0
1144,1144,0.51,-1.29,-0.16,2024-03-22 15:59:59.158,1.396352391053204,0
1145,1145,0.63,-1.33,-0.13,2024-03-22 15:59:59.161,1.4773963584630903,0
1146,1146,0.68,-1.35,-0.09,2024-03-22 15:59:59.165,1.5142654985173507,0
1147,1147,0.83,-1.35,0.04,2024-03-22 15:59:59.202,1.5852444606432157,0
1148,1148,1.07,-1.23,0.22,2024-03-22 15:59:59.206,1.6450531906294095,0
1149,1149,1.37,-0.98,0.6,2024-03-22 15:59:59.211,1.7880995498014085,0
1150,1150,1.7,-0.67,1.19,2024-03-22 15:59:59.246,2.1805962487356525,0
1151,1151,6.18,15.78,14.68,2024-03-22 15:59:59.250,22.421043686679706,0
1152,1152,5.59,-2.91,0.94,2024-03-22 15:59:59.253,6.371797234689755,0
1153,1153,-0.14,-1.82,0.41,2024-03-22 15:59:59.388,1.8708554193202638,0
1154,1154,-0.25,-0.4,1.12,2024-03-22 15:59:59.391,1.2152777460317457,0
1155,1155,0.83,-0.04,1.49,2024-03-22 15:59:59.395,1.7060480649735517,0
1156,1156,1.06,0.44,1.36,2024-03-22 15:59:59.398,1.7795505050433382,0
1157,1157,0.67,0.11,1.0,2024-03-22 15:59:59.429,1.2087183294713455,0
1158,1158,0.8,-0.04,0.95,2024-03-22 15:59:59.433,1.2426182036329583,0
1159,1159,0.87,-0.13,0.95,2024-03-22 15:59:59.438,1.2947200469599596,0
1160,1160,0.88,-0.27,0.92,2024-03-22 15:59:59.472,1.3014222988715076,0
1161,1161,0.84,-0.4,0.86,2024-03-22 15:59:59.476,1.2669648771769484,0
1162,1162,0.77,-0.51,0.81,2024-03-22 15:59:59.522,1.2284543133547947,0
1163,1163,0.68,-0.59,0.76,2024-03-22 15:59:59.524,1.1781765572273113,0
1164,1164,0.61,-0.66,0.69,2024-03-22 15:59:59.528,1.1330489839367053,0
1165,1165,0.55,-0.73,0.63,2024-03-22 15:59:59.529,1.1100900864344299,0
1166,1166,0.53,-0.79,0.58,2024-03-22 15:59:59.612,1.1141813137905339,0
1167,1167,0.48,-0.87,0.52,2024-03-22 15:59:59.615,1.1214722466472364,0
1168,1168,0.41,-0.94,0.45,2024-03-22 15:59:59.619,1.1199107107265294,0
1169,1169,0.28,-1.15,0.32,2024-03-22 15:59:59.656,1.2260913505934212,0
1170,1170,0.21,-1.32,0.2,2024-03-22 15:59:59.659,1.351480669488099,0
1171,1171,0.35,-1.35,0.25,2024-03-22 15:59:59.663,1.4168627315304756,0
1172,1172,0.56,-1.34,0.32,2024-03-22 15:59:59.698,1.4871449156017043,0
1173,1173,0.81,-1.27,0.39,2024-03-22 15:59:59.702,1.5559884318336046,0
1174,1174,1.06,-1.13,0.45,2024-03-22 15:59:59.706,1.613381541979454,0
1175,1175,1.42,-0.77,0.72,2024-03-22 15:59:59.747,1.768530463407402,0
1176,1176,2.2,13.65,1.81,2024-03-22 15:59:59.750,13.944124210577014,0
1177,1177,7.49,5.92,0.37,2024-03-22 15:59:59.754,9.554234663226563,0
1178,1178,0.67,2.53,1.48,2024-03-22 15:59:59.785,3.0066925349958877,0
1179,1179,0.2,0.26,0.29,2024-03-22 15:59:59.789,0.43783558557979274,0
1180,1180,0.4,0.15,0.45,2024-03-22 15:59:59.793,0.6204836822995429,0
1181,1181,0.74,0.16,1.11,2024-03-22 15:59:59.835,1.3436145280548286,0
1182,1182,0.87,0.35,1.12,2024-03-22 15:59:59.838,1.460753230357544,0
1183,1183,0.93,0.55,0.96,2024-03-22 15:59:59.842,1.4453373308677806,0
1184,1184,0.84,0.55,0.72,2024-03-22 15:59:59.877,1.2355160864998884,0
1185,1185,0.72,0.6,0.64,2024-03-22 15:59:59.881,1.1349008767288886,0
1186,1186,0.63,0.54,0.64,2024-03-22 15:59:59.924,1.047902667235846,0
1187,1187,0.59,0.45,0.63,2024-03-22 15:59:59.928,0.9733961166965892,0
1188,1188,0.57,0.35,0.59,2024-03-22 15:59:59.933,0.8919080670113932,0
1189,1189,0.51,0.28,0.51,2024-03-22 16:00:00.018,0.773692445355388,0
1190,1190,0.45,0.18,0.51,2024-03-22 16:00:00.020,0.7035623639735145,0
1191,1191,0.41,0.1,0.51,2024-03-22 16:00:00.023,0.6619667665374146,0
1192,1192,0.33,-0.04,0.5,2024-03-22 16:00:00.025,0.6004165220911231,0
1193,1193,0.15,-0.31,0.44,2024-03-22 16:00:00.060,0.5587486017879597,0
1194,1194,0.1,-0.45,0.43,2024-03-22 16:00:00.064,0.6303967004989794,0
1195,1195,0.06,-0.62,0.4,2024-03-22 16:00:00.068,0.7402702209328699,0
1196,1196,0.03,-0.76,0.4,2024-03-22 16:00:00.103,0.8593602271457529,0
1197,1197,-0.02,-0.89,0.44,2024-03-22 16:00:00.107,0.9930256794262674,0
1198,1198,-0.02,-1.04,0.51,2024-03-22 16:00:00.147,1.1584903970253704,0
1199,1199,-0.0,-1.16,0.55,2024-03-22 16:00:00.192,1.2837834708392222,0
1200,1200,0.09,-1.34,0.59,2024-03-22 16:00:00.196,1.4669014963520899,0
1201,1201,0.2,-1.42,0.65,2024-03-22 16:00:00.201,1.5744522857171632,0
1202,1202,0.38,-1.49,0.72,2024-03-22 16:00:00.205,1.697910480561328,0
1203,1203,1.2,-1.26,0.82,2024-03-22 16:00:00.239,1.9235384061671346,0
1204,1204,1.65,-0.86,0.9,2024-03-22 16:00:00.243,2.0669059001318857,0
1205,1205,6.47,10.7,0.08,2024-03-22 16:00:00.247,12.504291263402335,0
1206,1206,4.85,6.26,-0.13,2024-03-22 16:00:00.285,7.920037878697298,0
1207,1207,1.22,2.48,0.75,2024-03-22 16:00:00.288,2.86379119350556,0
1208,1208,0.69,0.88,0.23,2024-03-22 16:00:00.334,1.1416654501210062,0
1209,1209,0.36,0.15,0.58,2024-03-22 16:00:00.338,0.6989277502002621,0
1210,1210,0.86,0.29,1.05,2024-03-22 16:00:00.342,1.3878760751594503,0
1211,1211,1.08,0.46,0.86,2024-03-22 16:00:00.346,1.4551975810864997,0
1212,1212,1.05,0.55,0.59,2024-03-22 16:00:00.377,1.3240468269664785,0
1213,1213,1.01,0.64,0.52,2024-03-22 16:00:00.378,1.3038788287260439,0
1214,1214,0.95,0.66,0.42,2024-03-22 16:00:00.382,1.2306502346320827,0
1215,1215,0.92,0.8,0.29,2024-03-22 16:00:00.412,1.2531959144523255,0
1216,1216,0.94,0.61,0.19,2024-03-22 16:00:00.414,1.136573798747798,0
1217,1217,0.95,0.76,0.2,2024-03-22 16:00:00.416,1.232923355282071,0
1218,1218,0.94,0.69,0.19,2024-03-22 16:00:00.463,1.1814397995666135,0
1219,1219,0.91,0.73,0.14,2024-03-22 16:00:00.466,1.1749893616539684,0
1220,1220,0.85,0.62,0.14,2024-03-22 16:00:00.471,1.0613670430157516,0
1221,1221,0.82,0.58,0.15,2024-03-22 16:00:00.504,1.0155294185792945,0
1222,1222,0.8,0.45,0.16,2024-03-22 16:00:00.508,0.9317188417113824,0
1223,1223,0.8,0.48,0.24,2024-03-22 16:00:00.546,0.9633275663033837,0
1224,1224,0.76,0.4,0.31,2024-03-22 16:00:00.548,0.9130717386930777,0
1225,1225,0.73,0.31,0.36,2024-03-22 16:00:00.550,0.870976463516667,0
1226,1226,0.65,0.22,0.39,2024-03-22 16:00:00.588,0.7893034904268447,0
1227,1227,0.56,0.11,0.43,2024-03-22 16:00:00.634,0.7145628033979938,0
1228,1228,0.49,0.05,0.5,2024-03-22 16:00:00.635,0.7018546858146635,0
1229,1229,0.44,-0.02,0.58,2024-03-22 16:00:00.637,0.728285658241325,0
1230,1230,0.41,-0.14,0.83,2024-03-22 16:00:00.638,0.9362691920596341,0
1231,1231,0.79,-0.07,1.71,2024-03-22 16:00:00.687,1.8849668432097153,0
1232,1232,0.94,-0.12,1.72,2024-03-22 16:00:00.691,1.9637718808456341,0
1233,1233,1.17,-0.16,1.63,2024-03-22 16:00:00.694,2.0128089824918804,0
1234,1234,1.4,-0.05,1.36,2024-03-22 16:00:00.829,1.952459986785901,0
1235,1235,1.58,0.1,0.95,2024-03-22 16:00:00.832,1.8463206655399815,0
1236,1236,1.7,0.33,0.5,2024-03-22 16:00:00.837,1.8024705268048073,0
1237,1237,1.98,0.58,-0.12,2024-03-22 16:00:00.841,2.0666881719311214,0
1238,1238,0.77,2.11,0.0,2024-03-22 16:00:00.867,2.24610774452162,0
1239,1239,0.61,0.86,-0.33,2024-03-22 16:00:00.871,1.1048076755707303,0
1240,1240,0.64,0.73,-0.38,2024-03-22 16:00:00.875,1.042544963059148,0
1241,1241,0.63,0.72,-0.37,2024-03-22 16:00:00.916,1.0257680049601858,0
1242,1242,0.61,0.71,-0.35,2024-03-22 16:00:00.919,0.9993497886125758,0
1243,1243,0.59,0.6,-0.3,2024-03-22 16:00:00.924,0.8933644273195569,0
1244,1244,0.55,0.44,-0.2,2024-03-22 16:00:00.962,0.7321885003194192,0
1245,1245,0.55,0.41,-0.17,2024-03-22 16:00:00.965,0.7067531393633848,0
1246,1246,0.6,0.43,-0.12,2024-03-22 16:00:00.970,0.7478636239315293,0
1247,1247,0.64,0.44,-0.02,2024-03-22 16:00:01.003,0.7769169839822012,0
1248,1248,0.66,0.43,0.08,2024-03-22 16:00:01.048,0.7917701686727027,0
1249,1249,0.71,0.42,0.24,2024-03-22 16:00:01.052,0.859127464349732,0
1250,1250,0.74,0.37,0.47,2024-03-22 16:00:01.056,0.9515250916292224,0
1251,1251,0.76,0.36,0.59,2024-03-22 16:00:01.059,1.027277956543408,0
1252,1252,0.79,0.27,0.93,2024-03-22 16:00:01.097,1.2497599769555754,0
1253,1253,0.84,0.27,1.09,2024-03-22 16:00:01.101,1.4023551618616448,0
1254,1254,0.93,0.3,1.35,2024-03-22 16:00:01.105,1.6665533294797379,0
1255,1255,1.02,0.32,1.54,2024-03-22 16:00:01.142,1.8746733048720783,0
1256,1256,0.98,0.29,1.57,2024-03-22 16:00:01.145,1.873339264522046,0
1257,1257,0.94,0.26,1.58,2024-03-22 16:00:01.150,1.8567713914211412,0
1258,1258,0.99,0.27,1.6,2024-03-22 16:00:01.182,1.9007893097342483,0
1259,1259,1.13,0.26,1.55,2024-03-22 16:00:01.186,1.9357169214531345,0
1260,1260,1.25,0.25,1.37,2024-03-22 16:00:01.190,1.8713364208500833,0
1261,1261,1.34,0.22,0.92,2024-03-22 16:00:01.226,1.640243884305014,0
1262,1262,1.4,0.26,0.24,2024-03-22 16:00:01.230,1.4440221604947756,0
1263,1263,-3.89,1.92,-15.57,2024-03-22 16:00:01.276,16.16302570684091,0
1264,1264,1.78,0.87,-1.34,2024-03-22 16:00:01.280,2.391840295671933,0
1265,1265,0.72,1.11,1.02,2024-03-22 16:00:01.283,1.6705986950791025,0
1266,1266,0.83,1.13,0.34,2024-03-22 16:00:01.286,1.4427057912131633,0
1267,1267,0.67,0.98,-0.06,2024-03-22 16:00:01.315,1.1886547017532048,0
1268,1268,0.68,0.9,0.01,2024-03-22 16:00:01.319,1.1280514172678477,0
1269,1269,0.67,0.83,0.03,2024-03-22 16:00:01.369,1.0670988707706517,0
1270,1270,0.72,0.89,-0.03,2024-03-22 16:00:01.372,1.1451637437502113,0
1271,1271,0.74,0.98,-0.15,2024-03-22 16:00:01.376,1.2371337841963577,0
1272,1272,0.69,0.98,-0.3,2024-03-22 16:00:01.408,1.2355160864998884,0
1273,1273,0.59,0.89,-0.45,2024-03-22 16:00:01.413,1.1587493257818968,0
1274,1274,0.58,0.81,-0.43,2024-03-22 16:00:01.417,1.085080642164443,0
1275,1275,0.55,0.73,-0.36,2024-03-22 16:00:01.421,0.982344135219425,0
1276,1276,0.52,0.67,-0.3,2024-03-22 16:00:01.425,0.8996110270555825,0
1277,1277,0.52,0.62,-0.23,2024-03-22 16:00:01.447,0.8412490713219243,0
1278,1278,0.54,0.6,-0.1,2024-03-22 16:00:01.451,0.8133879763065102,0
1279,1279,0.56,0.59,0.02,2024-03-22 16:00:01.501,0.8136952746575341,0
1280,1280,0.57,0.53,0.18,2024-03-22 16:00:01.504,0.79887420787005,0
1281,1281,0.57,0.44,0.35,2024-03-22 16:00:01.507,0.8006247560499238,0
1282,1282,0.56,0.35,0.47,2024-03-22 16:00:01.551,0.8105553651663778,0
1283,1283,0.53,0.29,0.56,2024-03-22 16:00:01.554,0.8237718130647589,0
1284,1284,0.53,0.26,0.71,2024-03-22 16:00:01.558,0.9233634170791044,0
1285,1285,0.7,0.31,1.06,2024-03-22 16:00:01.587,1.3075549701637788,0
1286,1286,0.79,0.35,1.26,2024-03-22 16:00:01.592,1.5278088885721277,0
1287,1287,0.84,0.35,1.42,2024-03-22 16:00:01.636,1.6865645555388622,0
1288,1288,0.88,0.31,1.55,2024-03-22 16:00:01.639,1.80914344373242,0
1289,1289,0.98,0.27,1.61,2024-03-22 16:00:01.643,1.9040483187146275,0
1290,1290,1.24,0.09,1.56,2024-03-22 16:00:01.671,1.994818287463798,0
1291,1291,1.41,0.03,1.36,2024-03-22 16:00:01.673,1.9592345444075858,0
1292,1292,1.61,0.08,0.95,2024-03-22 16:00:01.675,1.871095935541521,0
1293,1293,1.76,0.22,0.56,2024-03-22 16:00:01.676,1.86,0
1294,1294,1.91,0.43,0.13,2024-03-22 16:00:01.723,1.9621162045098144,0
1295,1295,-1.19,2.52,-14.31,2024-03-22 16:00:01.726,14.578840831835706,0
1296,1296,0.81,1.12,-0.96,2024-03-22 16:00:01.772,1.682884428592766,0
1297,1297,0.73,0.59,0.16,2024-03-22 16:00:01.775,0.9521554494934111,0
1298,1298,0.62,1.0,-0.07,2024-03-22 16:00:01.780,1.178685708745126,0
1299,1299,0.79,0.92,-0.19,2024-03-22 16:00:01.813,1.227436352728727,0
1300,1300,0.71,0.87,-0.19,2024-03-22 16:00:01.817,1.1389029809426263,0
1301,1301,0.67,0.85,-0.2,2024-03-22 16:00:01.822,1.1006361796706485,0
1302,1302,0.69,0.86,-0.27,2024-03-22 16:00:01.855,1.1351651862174068,0
1303,1303,0.68,0.85,-0.39,2024-03-22 16:00:01.859,1.1562871615649808,0
1304,1304,0.66,0.83,-0.46,2024-03-22 16:00:01.864,1.1558979193683152,0
1305,1305,0.64,0.77,-0.43,2024-03-22 16:00:01.953,1.0896788517723925,0
1306,1306,0.68,0.69,-0.33,2024-03-22 16:00:01.956,1.0234256201600584,0
1307,1307,0.69,0.63,-0.25,2024-03-22 16:00:01.960,0.967212489580237,0
1308,1308,0.71,0.57,-0.19,2024-03-22 16:00:01.963,0.9301075206662938,0
1309,1309,0.82,0.34,0.22,2024-03-22 16:00:01.993,0.914549069213894,0
1310,1310,0.8,0.21,0.47,2024-03-22 16:00:01.996,0.9513148795220224,0
1311,1311,0.83,0.05,0.69,2024-03-22 16:00:02.000,1.0805091392487154,0
1312,1312,0.9,-0.01,0.92,2024-03-22 16:00:02.043,1.2870508925446578,0
1313,1313,0.96,-0.03,1.1,2024-03-22 16:00:02.057,1.4603081866510235,0
1314,1314,0.98,-0.04,1.27,2024-03-22 16:00:02.058,1.60464949443796,0
1315,1315,1.05,-0.1,1.58,2024-03-22 16:00:02.132,1.8997105042611098,0
1316,1316,1.16,-0.12,1.66,2024-03-22 16:00:02.136,2.02869416127715,0
1317,1317,1.27,-0.11,1.6,2024-03-22 16:00:02.140,2.0457272545478786,0
1318,1318,1.38,-0.1,1.37,2024-03-22 16:00:02.145,1.9471260873400058,0
1319,1319,1.67,0.07,0.18,2024-03-22 16:00:02.172,1.6811305719663776,0
1320,1320,-2.94,4.68,-14.74,2024-03-22 16:00:02.176,15.742096429637318,0
1321,1321,0.61,0.25,-1.16,2024-03-22 16:00:02.180,1.334241357476225,0
1322,1322,0.87,0.22,0.57,2024-03-22 16:00:02.218,1.0631086491981898,0
1323,1323,1.0,0.79,0.21,2024-03-22 16:00:02.222,1.2915881696578055,0
1324,1324,1.06,0.92,-0.28,2024-03-22 16:00:02.226,1.4312232530251876,0
1325,1325,0.95,0.83,-0.53,2024-03-22 16:00:02.265,1.368320137979413,0
1326,1326,0.88,0.72,-0.56,2024-03-22 16:00:02.268,1.2674383614203888,0
1327,1327,0.95,0.74,-0.57,2024-03-22 16:00:02.272,1.3322912594474228,0
1328,1328,0.98,0.75,-0.65,2024-03-22 16:00:02.308,1.394775967673662,0
1329,1329,0.95,0.75,-0.72,2024-03-22 16:00:02.312,1.408332347139694,0
1330,1330,0.92,0.73,-0.79,2024-03-22 16:00:02.316,1.4154151334502538,0
1331,1331,0.91,0.69,-0.78,2024-03-22 16:00:02.358,1.3829678231976332,0
1332,1332,0.92,0.67,-0.69,2024-03-22 16:00:02.362,1.3309395177843357,0
1333,1333,0.91,0.61,-0.58,2024-03-22 16:00:02.365,1.2395967086113129,0
1334,1334,0.88,0.55,-0.47,2024-03-22 16:00:02.404,1.1392102527628516,0
1335,1335,0.85,0.51,-0.38,2024-03-22 16:00:02.408,1.0616025621672172,0
1336,1336,0.81,0.47,-0.29,2024-03-22 16:00:02.412,0.980357077803797,0
1337,1337,0.78,0.41,-0.18,2024-03-22 16:00:02.495,0.8993886812718959,0
1338,1338,0.72,0.35,-0.09,2024-03-22 16:00:02.498,0.8056053624449132,0
1339,1339,0.63,0.27,-0.0,2024-03-22 16:00:02.501,0.6854195795277518,0
1340,1340,0.52,0.19,0.03,2024-03-22 16:00:02.503,0.5544366510251645,0
1341,1341,0.35,0.09,0.06,2024-03-22 16:00:02.533,0.366333181680284,0
1342,1342,0.29,0.04,0.14,2024-03-22 16:00:02.537,0.32449961479175904,0
1343,1343,0.32,0.03,0.27,2024-03-22 16:00:02.541,0.41976183723630717,0
1344,1344,0.39,0.03,0.42,2024-03-22 16:00:02.575,0.5739337940912698,0
1345,1345,0.48,0.03,0.73,2024-03-22 16:00:02.579,0.8741853350405736,0
1346,1346,0.6,0.01,1.0,2024-03-22 16:00:02.583,1.1662332528272379,0
1347,1347,0.78,-0.02,1.27,2024-03-22 16:00:02.587,1.490536816049842,0
1348,1348,0.99,-0.06,1.62,2024-03-22 16:00:02.622,1.8994999341932077,0
1349,1349,1.22,-0.1,1.69,2024-03-22 16:00:02.626,2.0867438750359373,0
1350,1350,1.39,-0.24,1.52,2024-03-22 16:00:02.665,2.0736682473336954,0
1351,1351,1.64,-0.3,1.18,2024-03-22 16:00:02.669,2.0425474290698853,0
1352,1352,1.92,-0.32,0.65,2024-03-22 16:00:02.673,2.052145219033,0
1353,1353,2.16,-0.29,0.1,2024-03-22 16:00:02.714,2.1816736694565484,0
1354,1354,2.28,-0.23,-0.36,2024-03-22 16:00:02.718,2.319676701611671,0
1355,1355,4.47,1.71,-14.34,2024-03-22 16:00:02.722,15.117559326822567,0
1356,1356,2.06,0.27,-3.44,2024-03-22 16:00:02.726,4.018718701277809,0
1357,1357,1.16,0.44,-0.95,2024-03-22 16:00:02.763,1.5625939971726501,0
1358,1358,0.8,0.4,-0.21,2024-03-22 16:00:02.767,0.9187491496594705,0
1359,1359,0.94,0.71,-0.33,2024-03-22 16:00:02.810,1.2233560397529413,0
1360,1360,0.91,0.93,-0.51,2024-03-22 16:00:02.814,1.3975335416368366,0
1361,1361,1.02,0.96,-0.63,2024-03-22 16:00:02.817,1.5358710883404245,0
1362,1362,0.98,0.84,-0.65,2024-03-22 16:00:02.894,1.445164350515193,0
1363,1363,0.94,0.77,-0.71,2024-03-22 16:00:02.898,1.4073379125142618,0
1364,1364,0.9,0.76,-0.78,2024-03-22 16:00:02.903,1.4127986409959488,0
1365,1365,0.84,0.74,-0.82,2024-03-22 16:00:02.907,1.3876599006961323,0
1366,1366,0.84,0.73,-0.52,2024-03-22 16:00:02.944,1.2283729075488434,0
1367,1367,0.87,0.75,-0.45,2024-03-22 16:00:02.947,1.2336531116971254,0
1368,1368,0.87,0.74,-0.33,2024-03-22 16:00:02.951,1.1888650049522023,0
1369,1369,0.86,0.69,-0.21,2024-03-22 16:00:02.981,1.1224081254160627,0
1370,1370,0.82,0.61,-0.09,2024-03-22 16:00:02.985,1.0259629622944484,0
1371,1371,0.8,0.57,0.02,2024-03-22 16:00:02.990,0.982496819333274,0
1372,1372,0.75,0.52,0.13,2024-03-22 16:00:03.026,0.9218459741193211,0
1373,1373,0.73,0.5,0.18,2024-03-22 16:00:03.030,0.9029396436085858,0
1374,1374,0.7,0.48,0.21,2024-03-22 16:00:03.034,0.8743569065318807,0
1375,1375,0.67,0.46,0.19,2024-03-22 16:00:03.069,0.8346256645946134,0
1376,1376,0.64,0.35,0.15,2024-03-22 16:00:03.073,0.7447147104764347,0
1377,1377,0.61,0.18,0.1,2024-03-22 16:00:03.076,0.6438167441127949,0
1378,1378,0.49,-0.11,0.11,2024-03-22 16:00:03.121,0.5141011573610781,0
1379,1379,0.4,-0.37,0.15,2024-03-22 16:00:03.123,0.5651548460377918,0
1380,1380,0.34,-0.62,0.26,2024-03-22 16:00:03.126,0.7533923280734945,0
1381,1381,0.08,-1.3,0.49,2024-03-22 16:00:03.164,1.3915818337417316,0
1382,1382,-0.08,-1.61,0.5,2024-03-22 16:00:03.167,1.6877499814842245,0
1383,1383,-0.15,-1.81,0.51,2024-03-22 16:00:03.210,1.8864516956444974,0
1384,1384,-0.11,-2.0,0.49,2024-03-22 16:00:03.214,2.0620863221504573,0
1385,1385,0.08,-1.97,0.52,2024-03-22 16:00:03.218,2.0390438935932695,0
1386,1386,0.44,-1.81,0.62,2024-03-22 16:00:03.221,1.9631861857704684,0
1387,1387,0.89,-1.29,1.02,2024-03-22 16:00:03.253,1.8699197843757898,0
1388,1388,1.23,-1.08,1.13,2024-03-22 16:00:03.258,1.9890198591266,0
1389,1389,1.73,2.93,5.58,2024-03-22 16:00:03.262,6.53561014749197,0
1390,1390,8.34,9.76,2.51,2024-03-22 16:00:03.300,13.081028247045413,0
1391,1391,1.18,3.15,1.89,2024-03-22 16:00:03.303,3.858367530446005,0
1392,1392,-0.02,0.87,0.58,2024-03-22 16:00:03.307,1.0458011283222064,0
1393,1393,-0.24,-0.37,0.4,2024-03-22 16:00:03.347,0.5953990258641678,0
1394,1394,0.06,-0.31,1.0,2024-03-22 16:00:03.351,1.0486658190291127,0
1395,1395,0.31,-0.31,1.25,2024-03-22 16:00:03.355,1.3246508974065583,0
1396,1396,0.5,-0.05,1.3,2024-03-22 16:00:03.436,1.3937359864766354,0
1397,1397,0.58,0.21,1.22,2024-03-22 16:00:03.439,1.3670771741200276,0
1398,1398,0.61,0.46,1.15,2024-03-22 16:00:03.443,1.380652019880462,0
1399,1399,0.59,0.62,1.1,2024-03-22 16:00:03.447,1.3937359864766354,0
1400,1400,0.39,0.27,0.79,2024-03-22 16:00:03.525,0.9214662229295224,0
1401,1401,0.36,0.19,0.76,2024-03-22 16:00:03.529,0.8621484790916237,0
1402,1402,0.34,0.11,0.73,2024-03-22 16:00:03.616,0.812773031048644,0
1403,1403,0.3,0.01,0.7,2024-03-22 16:00:03.660,0.7616429609731845,0
1404,1404,0.19,-0.27,0.58,2024-03-22 16:00:03.664,0.6673829485385434,0
1405,1405,0.12,-0.58,0.37,2024-03-22 16:00:03.668,0.6983552104767315,0
1406,1406,0.01,-0.92,0.21,2024-03-22 16:00:03.752,0.9437160589923221,0
1407,1407,-0.13,-1.85,0.17,2024-03-22 16:00:03.755,1.8623372412106247,0
1408,1408,-0.02,-2.27,0.3,2024-03-22 16:00:03.759,2.2898253208487325,0
1409,1409,0.24,-2.19,0.49,2024-03-22 16:00:03.763,2.2569448376068033,0
1410,1410,1.16,-1.4,1.12,2024-03-22 16:00:03.793,2.1354156504062622,0
1411,1411,5.84,2.75,4.11,2024-03-22 16:00:03.798,7.6524636555817755,0
1412,1412,0.06,-0.58,1.03,2024-03-22 16:00:03.805,1.1835962149314267,0
1413,1413,-0.76,-0.94,0.54,2024-03-22 16:00:03.836,1.3239335330748292,0
1414,1414,-0.8,-0.76,0.57,2024-03-22 16:00:03.840,1.241974234837422,0
1415,1415,-0.41,-0.65,0.89,2024-03-22 16:00:03.881,1.1758826472059192,0
1416,1416,0.02,-0.56,1.1,2024-03-22 16:00:03.885,1.2345039489608773,0
1417,1417,0.18,-0.39,1.3,2024-03-22 16:00:03.976,1.3691238074038448,0
1418,1418,0.21,-0.01,1.36,2024-03-22 16:00:03.979,1.376154061142865,0
1419,1419,0.31,0.17,1.31,2024-03-22 16:00:03.984,1.3568714014231416,0
1420,1420,0.33,0.16,1.18,2024-03-22 16:00:03.987,1.235677951571525,0
1421,1421,0.21,0.14,0.95,2024-03-22 16:00:04.066,0.9829547293746543,0
1422,1422,0.19,-0.13,0.87,2024-03-22 16:00:04.069,0.899944442729661,0
1423,1423,0.12,-0.22,0.78,2024-03-22 16:00:04.073,0.8192679659305617,0
1424,1424,0.08,-0.28,0.73,2024-03-22 16:00:04.077,0.7859389289251423,0
1425,1425,0.04,-0.31,0.61,2024-03-22 16:00:04.107,0.6854195795277518,0
1426,1426,0.06,-0.3,0.58,2024-03-22 16:00:04.112,0.6557438524302001,0
1427,1427,0.05,-0.32,0.55,2024-03-22 16:00:04.116,0.6382789358893179,0
1428,1428,-0.02,-0.37,0.49,2024-03-22 16:00:04.152,0.6143289021363068,0
1429,1429,-0.05,-0.56,0.51,2024-03-22 16:00:04.204,0.7590783885739338,0
1430,1430,-0.13,-0.76,0.49,2024-03-22 16:00:04.207,0.9135644476444998,0
1431,1431,-0.27,-1.2,0.45,2024-03-22 16:00:04.211,1.3097327971765844,0
1432,1432,-0.39,-1.44,0.41,2024-03-22 16:00:04.215,1.54719100307622,0
1433,1433,-0.46,-1.95,0.34,2024-03-22 16:00:04.244,2.0321663317750347,0
1434,1434,-0.39,-2.05,0.33,2024-03-22 16:00:04.248,2.112699694703438,0
1435,1435,-0.25,-2.09,0.37,2024-03-22 16:00:04.252,2.137171027316251,0
1436,1436,0.13,-1.99,0.49,2024-03-22 16:00:04.292,2.053557888154118,0
1437,1437,0.64,-1.88,0.7,2024-03-22 16:00:04.295,2.105706532259422,0
1438,1438,1.1,-1.62,0.93,2024-03-22 16:00:04.299,2.1677868898948534,0
1439,1439,1.68,-0.84,7.82,2024-03-22 16:00:04.335,8.042412573351358,0
1440,1440,9.88,4.78,2.11,2024-03-22 16:00:04.338,11.176533451835592,0
1441,1441,1.19,3.04,1.69,2024-03-22 16:00:04.343,3.67611207663749,0
1442,1442,-0.04,0.08,0.46,2024-03-22 16:00:04.384,0.46861498055439926,0
1443,1443,-0.13,0.59,0.75,2024-03-22 16:00:04.387,0.9630680142129111,0
1444,1444,0.32,0.16,1.29,2024-03-22 16:00:04.472,1.3386933928274989,0
1445,1445,0.5,0.05,1.62,2024-03-22 16:00:04.476,1.6961426826773744,0
1446,1446,0.5,0.03,1.5,2024-03-22 16:00:04.480,1.5814234094637654,0
1447,1447,0.41,0.18,1.32,2024-03-22 16:00:04.483,1.3938794782907165,0
1448,1448,0.22,0.37,0.86,2024-03-22 16:00:04.513,0.9617172141539321,0
1449,1449,0.21,0.49,0.84,2024-03-22 16:00:04.517,0.9948869282486326,0
1450,1450,0.32,0.53,0.93,2024-03-22 16:00:04.561,1.1172287142747452,0
1451,1451,0.38,0.55,1.12,2024-03-22 16:00:04.564,1.3043389130130252,0
1452,1452,0.35,0.39,1.14,2024-03-22 16:00:04.567,1.2546712716883255,0
1453,1453,0.27,0.53,0.96,2024-03-22 16:00:04.571,1.12933608815091,0
1454,1454,0.12,0.44,0.83,2024-03-22 16:00:04.599,0.9470480452437458,0
1455,1455,0.01,0.41,0.79,2024-03-22 16:00:04.603,0.8901123524589466,0
1456,1456,-0.04,0.32,0.75,2024-03-22 16:00:04.607,0.816394512475433,0
1457,1457,-0.06,0.23,0.77,2024-03-22 16:00:04.651,0.8058535847162311,0
1458,1458,-0.04,0.2,0.82,2024-03-22 16:00:04.654,0.8449852069711042,0
1459,1459,-0.03,0.22,0.79,2024-03-22 16:00:04.658,0.8206095295571457,0
1460,1460,-0.18,0.13,0.7,2024-03-22 16:00:04.690,0.7343704787094861,0
1461,1461,-0.23,0.0,0.68,2024-03-22 16:00:04.694,0.7178439941937246,0
1462,1462,-0.25,-0.12,0.7,2024-03-22 16:00:04.742,0.7529276193632426,0
1463,1463,-0.19,-0.33,0.68,2024-03-22 16:00:04.745,0.7793587107359488,0
1464,1464,-0.19,-0.53,0.6,2024-03-22 16:00:04.749,0.8228000972289685,0
1465,1465,-0.25,-0.81,0.46,2024-03-22 16:00:04.753,0.9644687656943589,0
1466,1466,-0.22,-1.07,0.27,2024-03-22 16:00:04.788,1.1252555265360842,0
1467,1467,-0.21,-1.22,0.13,2024-03-22 16:00:04.791,1.2447489706764172,0
1468,1468,-0.09,-1.21,0.07,2024-03-22 16:00:04.795,1.2153600289626114,0
1469,1469,0.17,-1.1,0.08,2024-03-22 16:00:04.828,1.1159301053381434,0
1470,1470,0.56,-0.8,0.09,2024-03-22 16:00:04.832,0.9806630410084802,0
1471,1471,1.04,-0.19,0.65,2024-03-22 16:00:04.835,1.2410479442793498,0
1472,1472,7.98,0.17,0.76,2024-03-22 16:00:04.923,8.017911199308708,0
1473,1473,-1.16,3.04,1.09,2024-03-22 16:00:04.926,3.431515700095222,0
1474,1474,-0.37,0.04,0.65,2024-03-22 16:00:04.930,0.7489993324429602,0
1475,1475,0.63,2.4,0.66,2024-03-22 16:00:04.934,2.5675864152935537,0
1476,1476,0.37,1.17,1.18,2024-03-22 16:00:05.006,1.702410056361275,0
1477,1477,0.2,1.12,0.93,2024-03-22 16:00:05.010,1.4694556815365343,0
1478,1478,0.03,1.09,0.77,2024-03-22 16:00:05.014,1.3348782716038192,0
1479,1479,0.08,1.06,0.58,2024-03-22 16:00:05.017,1.2109500402576483,0
1480,1480,0.02,0.79,0.37,2024-03-22 16:00:05.052,0.8725823743349392,0
1481,1481,-0.09,0.65,0.26,2024-03-22 16:00:05.056,0.7058328414008518,0
1482,1482,-0.21,0.4,0.17,2024-03-22 16:00:05.061,0.4827007354458868,0
1483,1483,-0.3,0.2,0.1,2024-03-22 16:00:05.097,0.37416573867739417,0
1484,1484,-0.36,0.05,0.04,2024-03-22 16:00:05.101,0.3656501059756444,0
1485,1485,-0.46,-0.09,-0.0,2024-03-22 16:00:05.105,0.4687216658103186,0
1486,1486,-0.52,-0.21,-0.02,2024-03-22 16:00:05.143,0.561159513863928,0
1487,1487,-0.58,-0.29,0.0,2024-03-22 16:00:05.147,0.648459713474939,0
1488,1488,-0.61,-0.41,0.03,2024-03-22 16:00:05.151,0.7355949972641196,0
1489,1489,-0.61,-0.48,0.03,2024-03-22 16:00:05.188,0.7767882594375382,0
1490,1490,-0.62,-0.52,0.03,2024-03-22 16:00:05.192,0.8097530487747484,0
1491,1491,-0.6,-0.55,-0.0,2024-03-22 16:00:05.196,0.8139410298049854,0
1492,1492,-0.55,-0.55,-0.04,2024-03-22 16:00:05.234,0.7788452991448302,0
1493,1493,-0.46,-0.6,-0.07,2024-03-22 16:00:05.238,0.7592759709091287,0
1494,1494,-0.35,-0.64,-0.09,2024-03-22 16:00:05.243,0.7349829930005184,0
1495,1495,-0.26,-0.68,-0.13,2024-03-22 16:00:05.282,0.739526875779373,0
1496,1496,-0.2,-0.7,-0.15,2024-03-22 16:00:05.285,0.7433034373659252,0
1497,1497,-0.09,-0.71,-0.12,2024-03-22 16:00:05.289,0.7256721022610694,0
1498,1498,0.13,-0.71,-0.03,2024-03-22 16:00:05.328,0.7224264668462805,0
1499,1499,0.31,-0.6,0.22,2024-03-22 16:00:05.331,0.7102816342831905,0
1500,1500,0.67,1.2,5.43,2024-03-22 16:00:05.335,5.601232007335529,0
1501,1501,4.8,0.63,2.64,2024-03-22 16:00:05.369,5.514208918784271,0
1502,1502,-1.77,1.96,2.16,2024-03-22 16:00:05.373,3.411759077074464,0
1503,1503,-1.06,0.16,1.83,2024-03-22 16:00:05.399,2.1208724619835113,0
1504,1504,-0.47,-0.53,2.96,2024-03-22 16:00:05.405,3.0435834143325198,0
1505,1505,0.1,0.07,2.87,2024-03-22 16:00:05.407,2.8725946459603384,0
1506,1506,0.28,0.63,2.16,2024-03-22 16:00:05.504,2.2673552875542025,0
1507,1507,-0.15,0.64,1.34,2024-03-22 16:00:05.507,1.4925481566770302,0
1508,1508,-0.16,0.59,1.1,2024-03-22 16:00:05.510,1.2584514293368656,0
1509,1509,-0.12,0.6,0.86,2024-03-22 16:00:05.512,1.0554619841567008,0
1510,1510,-0.11,0.28,0.5,2024-03-22 16:00:05.545,0.5835237784358064,0
1511,1511,-0.21,0.09,-0.0,2024-03-22 16:00:05.552,0.22847319317591724,0
1512,1512,-0.24,0.22,-0.11,2024-03-22 16:00:05.556,0.34365680554879163,0
1513,1513,-0.3,0.3,-0.22,2024-03-22 16:00:05.588,0.4779121258139408,0
1514,1514,-0.31,0.24,-0.3,2024-03-22 16:00:05.592,0.4936598018878993,0
1515,1515,-0.35,0.27,-0.39,2024-03-22 16:00:05.596,0.5894913061275798,0
1516,1516,-0.37,0.23,-0.47,2024-03-22 16:00:05.690,0.6408587988004846,0
1517,1517,-0.4,0.2,-0.51,2024-03-22 16:00:05.694,0.6783067152844648,0
1518,1518,-0.44,0.14,-0.59,2024-03-22 16:00:05.698,0.7491995728776144,0
1519,1519,-0.43,0.11,-0.64,2024-03-22 16:00:05.701,0.7788452991448301,0
1520,1520,-0.19,-0.01,-0.53,2024-03-22 16:00:05.721,0.5631163290120436,0
1521,1521,-0.15,-0.05,-0.55,2024-03-22 16:00:05.723,0.57227615711298,0
1522,1522,-0.07,-0.13,-0.51,2024-03-22 16:00:05.774,0.5309425580983314,0
1523,1523,-0.02,-0.22,-0.44,2024-03-22 16:00:05.778,0.49234134500364685,0
1524,1524,0.03,-0.29,-0.26,2024-03-22 16:00:05.782,0.3906404996924922,0
1525,1525,0.05,-0.17,0.37,2024-03-22 16:00:05.786,0.4102438299353203,0
1526,1526,0.07,0.0,1.21,2024-03-22 16:00:05.864,1.212023102090055,0
1527,1527,-6.94,-0.33,9.31,2024-03-22 16:00:05.867,11.616737924219517,0
1528,1528,2.93,-1.56,10.46,2024-03-22 16:00:05.871,10.974064880435144,0
1529,1529,-3.24,1.23,0.14,2024-03-22 16:00:05.874,3.4684434549232606,0
1530,1530,-0.78,0.05,0.61,2024-03-22 16:00:05.908,0.991463564635635,0
1531,1531,-0.32,0.04,0.75,2024-03-22 16:00:05.913,0.816394512475433,0
1532,1532,-0.13,0.3,0.54,2024-03-22 16:00:05.954,0.6312685640834652,0
1533,1533,-0.14,0.51,0.28,2024-03-22 16:00:05.957,0.5984145720150872,0
1534,1534,-0.2,0.59,-0.05,2024-03-22 16:00:05.998,0.6249799996799897,0
1535,1535,-0.21,0.55,-0.28,2024-03-22 16:00:06.002,0.6519202405202649,0
1536,1536,-0.24,0.53,-0.35,2024-03-22 16:00:06.006,0.6789698078707183,0
1537,1537,-0.2,0.41,-0.42,2024-03-22 16:00:06.010,0.6200806399170998,0
1538,1538,-0.17,0.35,-0.46,2024-03-22 16:00:06.042,0.6024948132556828,0
1539,1539,-0.15,0.23,-0.51,2024-03-22 16:00:06.046,0.5792236183029832,0
1540,1540,-0.15,0.15,-0.55,2024-03-22 16:00:06.050,0.5894913061275798,0
1541,1541,-0.18,-0.01,-0.5,2024-03-22 16:00:06.092,0.5315072906367324,0
1542,1542,-0.21,0.1,-0.43,2024-03-22 16:00:06.095,0.48887626246321264,0
1543,1543,-0.14,0.07,-0.33,2024-03-22 16:00:06.099,0.36523964735499354,0
1544,1544,-0.0,0.11,-0.1,2024-03-22 16:00:06.133,0.14866068747318506,0
1545,1545,0.21,0.13,0.15,2024-03-22 16:00:06.137,0.2889636655359978,0
1546,1546,0.54,0.28,0.48,2024-03-22 16:00:06.141,0.7748548251124207,0
1547,1547,0.83,0.31,0.62,2024-03-22 16:00:06.145,1.081387996974259,0
1548,1548,1.31,0.27,0.98,2024-03-22 16:00:06.176,1.6581314785022327,0
1549,1549,1.91,0.37,1.04,2024-03-22 16:00:06.180,2.206037171037696,0
1550,1550,2.21,0.7,0.72,2024-03-22 16:00:06.221,2.427447218787671,0
1551,1551,2.6,1.3,0.33,2024-03-22 16:00:06.225,2.925559775495965,0
1552,1552,3.33,2.23,0.22,2024-03-22 16:00:06.230,4.013751362503662,0
1553,1553,3.5,2.78,0.25,2024-03-22 16:00:06.274,4.4767063785778936,0
1554,1554,3.64,2.6,0.16,2024-03-22 16:00:06.277,4.476069704551081,0
1555,1555,3.25,1.76,-0.03,2024-03-22 16:00:06.282,3.6960790034846385,0
1556,1556,2.45,1.26,-0.26,2024-03-22 16:00:06.310,2.7672549575346324,0
1557,1557,1.81,1.0,-0.35,2024-03-22 16:00:06.314,2.097283957884578,0
1558,1558,1.47,0.73,-0.35,2024-03-22 16:00:06.318,1.678183541809417,0
1559,1559,1.14,0.45,-0.23,2024-03-22 16:00:06.357,1.2469963913339925,0
1560,1560,0.87,0.17,-0.17,2024-03-22 16:00:06.361,0.9026073343375846,0
1561,1561,-2.27,-8.57,-0.05,2024-03-22 16:00:06.365,8.865681022910762,0
1562,1562,-0.99,4.39,-2.24,2024-03-22 16:00:06.409,5.0269075981163605,0
1563,1563,0.19,1.64,-1.0,2024-03-22 16:00:06.412,1.9302072427591808,0
1564,1564,0.17,2.19,-0.32,2024-03-22 16:00:06.416,2.21977476334875,0
1565,1565,0.87,-0.47,0.05,2024-03-22 16:00:06.446,0.990101004948485,0
1566,1566,0.43,-0.01,0.34,2024-03-22 16:00:06.450,0.548270006474912,0
1567,1567,0.23,-0.46,0.17,2024-03-22 16:00:06.454,0.5416641025580337,0
1568,1568,0.15,-0.31,-0.17,2024-03-22 16:00:06.495,0.3840572873934304,0
1569,1569,0.2,0.09,-0.48,2024-03-22 16:00:06.498,0.5277309920783504,0
1570,1570,0.36,0.36,-0.66,2024-03-22 16:00:06.500,0.8335466393669884,0
1571,1571,0.57,0.62,-0.73,2024-03-22 16:00:06.537,1.1145402639653714,0
1572,1572,0.75,0.74,-0.71,2024-03-22 16:00:06.541,1.2705117079350352,0
1573,1573,0.96,0.91,-0.61,2024-03-22 16:00:06.545,1.456639969244288,0
1574,1574,1.18,1.15,-0.42,2024-03-22 16:00:06.581,1.7003823099526765,0
1575,1575,1.25,1.17,-0.42,2024-03-22 16:00:06.585,1.7628953457309937,0
1576,1576,1.27,1.17,-0.45,2024-03-22 16:00:06.627,1.7844607028455404,0
1577,1577,1.25,1.17,-0.49,2024-03-22 16:00:06.631,1.7808705736240351,0
1578,1578,1.17,1.17,-0.45,2024-03-22 16:00:06.636,1.7147302994931883,0
1579,1579,1.11,1.08,-0.39,2024-03-22 16:00:06.671,1.59705979850474,0
1580,1580,1.04,1.02,-0.35,2024-03-22 16:00:06.675,1.498165544924859,0
1581,1581,1.03,0.96,-0.33,2024-03-22 16:00:06.679,1.4461673485458038,0
1582,1582,1.11,1.01,-0.42,2024-03-22 16:00:06.719,1.558396611905968,0
1583,1583,1.16,1.12,-0.48,2024-03-22 16:00:06.723,1.6823792675850473,0
1584,1584,1.22,1.23,-0.4,2024-03-22 16:00:06.770,1.778004499431877,0
1585,1585,1.25,1.16,-0.24,2024-03-22 16:00:06.773,1.7221207855432208,0
1586,1586,1.09,1.02,-0.18,2024-03-22 16:00:06.777,1.503628943589475,0
1587,1587,0.85,0.82,-0.22,2024-03-22 16:00:06.816,1.2013742131409346,0
1588,1588,0.74,0.61,-0.27,2024-03-22 16:00:06.819,0.9962931295557548,0
1589,1589,0.63,0.35,-0.36,2024-03-22 16:00:06.823,0.8056053624449132,0
1590,1590,-2.1,2.17,-2.87,2024-03-22 16:00:06.853,4.166029284582623,0
1591,1591,0.01,1.56,-0.9,2024-03-22 16:00:06.857,1.8010274845209888,0
1592,1592,0.99,0.6,-0.14,2024-03-22 16:00:06.860,1.166061747936189,0
1593,1593,0.84,-0.16,-0.14,2024-03-22 16:00:06.898,0.8664871608973786,0
1594,1594,0.6,-0.06,-0.44,2024-03-22 16:00:06.902,0.7464583042608609,0
1595,1595,0.43,0.14,-0.77,2024-03-22 16:00:06.906,0.892972563968233,0
1596,1596,0.35,0.55,-1.24,2024-03-22 16:00:06.945,1.400928263688045,0
1597,1597,0.53,0.86,-1.32,2024-03-22 16:00:06.950,1.6621973408714141,0
1598,1598,0.96,1.11,-1.11,2024-03-22 16:00:06.954,1.8400543470234787,0
1599,1599,1.29,1.55,-0.88,2024-03-22 16:00:06.988,2.2002272609891915,0
1600,1600,1.41,1.75,-0.8,2024-03-22 16:00:06.993,2.38549785160247,0
1601,1601,1.37,1.79,-0.81,2024-03-22 16:00:06.997,2.3952244153732236,0
1602,1602,1.28,1.78,-0.9,2024-03-22 16:00:07.001,2.369978902859686,0
1603,1603,1.19,1.77,-0.89,2024-03-22 16:00:07.036,2.311081997679875,0
1604,1604,1.09,1.6,-0.71,2024-03-22 16:00:07.040,2.0620863221504577,0
1605,1605,1.01,1.43,-0.52,2024-03-22 16:00:07.085,1.8263077506269307,0
1606,1606,0.92,1.26,-0.33,2024-03-22 16:00:07.088,1.5946472964263918,0
1607,1607,0.82,1.07,-0.21,2024-03-22 16:00:07.092,1.364331338055386,0
1608,1608,0.67,0.87,-0.13,2024-03-22 16:00:07.121,1.1057576588023255,0
1609,1609,0.55,0.64,-0.07,2024-03-22 16:00:07.125,0.846758525200662,0
1610,1610,0.39,0.54,-0.04,2024-03-22 16:00:07.129,0.6673080248281149,0
1611,1611,0.29,0.37,0.01,2024-03-22 16:00:07.168,0.47021271782034985,0
1612,1612,0.17,0.2,0.08,2024-03-22 16:00:07.172,0.2744084546802449,0
1613,1613,0.09,0.07,0.14,2024-03-22 16:00:07.176,0.18055470085267789,0
1614,1614,0.01,0.0,0.2,2024-03-22 16:00:07.179,0.2002498439450079,0
1615,1615,0.01,-0.11,0.17,2024-03-22 16:00:07.213,0.20273134932713294,0
1616,1616,-0.14,-0.04,0.24,2024-03-22 16:00:07.218,0.28071337695236404,0
1617,1617,-0.17,-0.14,0.17,2024-03-22 16:00:07.222,0.2782085548648711,0
1618,1618,-0.27,-0.13,0.24,2024-03-22 16:00:07.260,0.38392707640904933,0
1619,1619,-0.31,-0.35,0.29,2024-03-22 16:00:07.264,0.5501817881391567,0
1620,1620,-0.3,-0.32,0.31,2024-03-22 16:00:07.267,0.5371219600798315,0
1621,1621,-0.22,-0.32,0.32,2024-03-22 16:00:07.300,0.503189825016365,0
1622,1622,-0.18,-0.31,0.26,2024-03-22 16:00:07.305,0.44283179650969057,0
1623,1623,-0.16,-0.32,0.15,2024-03-22 16:00:07.350,0.38794329482541645,0
1624,1624,-0.16,-0.31,0.06,2024-03-22 16:00:07.353,0.35397740040855713,0
1625,1625,-0.07,-0.25,-0.04,2024-03-22 16:00:07.358,0.26267851073127396,0
1626,1626,0.27,0.56,-0.36,2024-03-22 16:00:07.442,0.7184010022264724,0
1627,1627,0.62,10.09,0.02,2024-03-22 16:00:07.445,10.109050400507458,0
1628,1628,2.46,0.09,-2.3,2024-03-22 16:00:07.450,3.368931581377099,0
1629,1629,0.62,4.96,0.28,2024-03-22 16:00:07.454,5.006435857973215,0
1630,1630,0.9,2.28,0.66,2024-03-22 16:00:07.486,2.5385034961567414,0
1631,1631,0.54,1.56,0.43,2024-03-22 16:00:07.489,1.7059015211904818,0
1632,1632,0.23,1.32,0.29,2024-03-22 16:00:07.492,1.3709121051329294,0
1633,1633,0.13,1.12,0.27,2024-03-22 16:00:07.528,1.1593963946813015,0
1634,1634,0.09,0.97,0.28,2024-03-22 16:00:07.532,1.0136074190730846,0
1635,1635,0.05,0.84,0.27,2024-03-22 16:00:07.536,0.883742043811428,0
1636,1636,0.02,0.66,0.21,2024-03-22 16:00:07.539,0.6928924880528003,0
1637,1637,-0.05,0.43,0.18,2024-03-22 16:00:07.574,0.4688283267892417,0
1638,1638,-0.16,0.2,0.18,2024-03-22 16:00:07.577,0.31304951684997057,0
1639,1639,-0.25,0.03,0.18,2024-03-22 16:00:07.615,0.3095157508108432,0
1640,1640,-0.34,-0.05,0.2,2024-03-22 16:00:07.619,0.39761790704142086,0
1641,1641,-0.39,-0.16,0.25,2024-03-22 16:00:07.623,0.4901020301937139,0
1642,1642,-0.45,-0.32,0.29,2024-03-22 16:00:07.758,0.623698645180507,0
1643,1643,-0.46,-0.36,0.3,2024-03-22 16:00:07.794,0.6566582063752802,0
1644,1644,-0.47,-0.38,0.28,2024-03-22 16:00:07.799,0.6661080993352355,0
1645,1645,-0.49,-0.41,0.24,2024-03-22 16:00:07.803,0.6824954212300621,0
1646,1646,-0.3,-0.38,0.05,2024-03-22 16:00:07.842,0.4867237409455183,0
1647,1647,0.21,1.16,-0.17,2024-03-22 16:00:07.889,1.1910499569707393,0
1648,1648,1.23,1.87,-0.19,2024-03-22 16:00:07.894,2.2463080821650445,0
1649,1649,0.41,2.53,0.61,2024-03-22 16:00:07.898,2.634596743336634,0
1650,1650,0.47,2.28,0.47,2024-03-22 16:00:07.902,2.3749105246303492,0
1651,1651,0.24,1.33,0.39,2024-03-22 16:00:07.935,1.4066271716414411,0
1652,1652,0.07,1.05,0.25,2024-03-22 16:00:07.939,1.0816191566350883,0
1653,1653,-0.09,0.77,0.14,2024-03-22 16:00:07.943,0.7877816956492452,0
1654,1654,-0.15,0.63,0.08,2024-03-22 16:00:07.986,0.6525335240430181,0
1655,1655,-0.18,0.49,0.05,2024-03-22 16:00:07.988,0.5244044240850757,0
1656,1656,-0.21,0.34,0.03,2024-03-22 16:00:07.992,0.4007492981902776,0
1657,1657,-0.27,0.17,0.05,2024-03-22 16:00:08.023,0.32295510523910287,0
1658,1658,-0.33,0.05,0.08,2024-03-22 16:00:08.027,0.3432200460346103,0
1659,1659,-0.4,-0.05,0.13,2024-03-22 16:00:08.031,0.42355637169094745,0
1660,1660,-0.46,-0.13,0.16,2024-03-22 16:00:08.072,0.5040833264451424,0
1661,1661,-0.48,-0.21,0.18,2024-03-22 16:00:08.075,0.5539855593785816,0
1662,1662,-0.5,-0.28,0.2,2024-03-22 16:00:08.079,0.6069596362197408,0
1663,1663,-0.51,-0.37,0.2,2024-03-22 16:00:08.162,0.6610597552415365,0
1664,1664,-0.51,-0.4,0.19,2024-03-22 16:00:08.165,0.6754257916307312,0
1665,1665,-0.47,-0.41,0.18,2024-03-22 16:00:08.169,0.6491532946846992,0
1666,1666,-0.43,-0.41,0.17,2024-03-22 16:00:08.172,0.617980582219215,0
1667,1667,-0.21,-0.29,-0.06,2024-03-22 16:00:08.176,0.3630426972134269,0
1668,1668,-0.15,-0.23,-0.1,2024-03-22 16:00:08.203,0.29223278392404917,0
1669,1669,-0.07,-0.15,-0.12,2024-03-22 16:00:08.207,0.20445048300260873,0
1670,1670,0.01,0.12,-0.22,2024-03-22 16:00:08.210,0.25079872407968906,0
1671,1671,0.17,0.68,-0.25,2024-03-22 16:00:08.245,0.7441773982055623,0
1672,1672,0.55,1.71,-0.22,2024-03-22 16:00:08.249,1.8096961070853856,0
1673,1673,-0.06,2.52,-1.84,2024-03-22 16:00:08.253,3.120833222073874,0
1674,1674,-0.07,4.51,1.92,2024-03-22 16:00:08.291,4.902183187111636,0
1675,1675,-0.09,1.57,0.31,2024-03-22 16:00:08.295,1.6028412273210344,0
1676,1676,0.41,2.27,0.43,2024-03-22 16:00:08.300,2.3464654269773506,0
1677,1677,0.54,1.93,0.56,2024-03-22 16:00:08.345,2.080889232996317,0
1678,1678,0.29,1.45,0.38,2024-03-22 16:00:08.348,1.5267612779999367,0
1679,1679,0.06,1.0,0.17,2024-03-22 16:00:08.353,1.0161200716450787,0
1680,1680,-0.12,0.76,0.02,2024-03-22 16:00:08.383,0.7696752561957543,0
1681,1681,-0.2,0.6,-0.04,2024-03-22 16:00:08.387,0.6337191807101944,0
1682,1682,-0.23,0.5,-0.06,2024-03-22 16:00:08.391,0.5536244214266564,0
1683,1683,-0.25,0.35,-0.05,2024-03-22 16:00:08.434,0.4330127018922193,0
1684,1684,-0.3,0.16,0.0,2024-03-22 16:00:08.438,0.33999999999999997,0
1685,1685,-0.38,0.01,0.06,2024-03-22 16:00:08.442,0.38483762809787714,0
1686,1686,-0.41,-0.1,0.08,2024-03-22 16:00:08.473,0.42953463189829055,0
1687,1687,-0.46,-0.14,0.09,2024-03-22 16:00:08.477,0.48918299234540036,0
1688,1688,-0.47,-0.19,0.08,2024-03-22 16:00:08.481,0.5132250968142537,0
1689,1689,-0.49,-0.27,0.09,2024-03-22 16:00:08.516,0.5666568626602876,0
1690,1690,-0.51,-0.38,0.12,2024-03-22 16:00:08.520,0.6472248450113762,0
1691,1691,-0.52,-0.45,0.13,2024-03-22 16:00:08.524,0.6998571282769077,0
1692,1692,-0.49,-0.46,0.14,2024-03-22 16:00:08.563,0.686512927773396,0
1693,1693,-0.42,-0.44,0.14,2024-03-22 16:00:08.567,0.6241794613730894,0
1694,1694,-0.36,-0.42,0.11,2024-03-22 16:00:08.571,0.564003546088143,0
1695,1695,-0.31,-0.36,0.01,2024-03-22 16:00:08.608,0.4751841748206689,0
1696,1696,-0.28,-0.27,-0.08,2024-03-22 16:00:08.612,0.3971145930332956,0
1697,1697,-0.22,-0.13,-0.16,2024-03-22 16:00:08.617,0.3014962686336267,0
1698,1698,-0.12,0.33,-0.22,2024-03-22 16:00:08.650,0.41436698710201325,0
1699,1699,-0.22,10.54,-4.94,2024-03-22 16:00:08.654,11.642319356554346,0
1700,1700,1.94,2.22,0.98,2024-03-22 16:00:08.696,3.1068311830545285,0
1701,1701,-0.24,4.58,0.4,2024-03-22 16:00:08.700,4.6036941688170385,0
1702,1702,-0.74,1.62,0.15,2024-03-22 16:00:08.704,1.7873164241398334,0
1703,1703,-0.17,2.17,-0.02,2024-03-22 16:00:08.707,2.1767406827640263,0
1704,1704,0.11,2.02,0.04,2024-03-22 16:00:08.742,2.0233882474700695,0
1705,1705,0.01,1.28,0.22,2024-03-22 16:00:08.745,1.2988071450373224,0
1706,1706,-0.22,0.94,0.15,2024-03-22 16:00:08.790,0.9769851585361979,0
1707,1707,-0.31,0.68,0.07,2024-03-22 16:00:08.793,0.7505997601918083,0
1708,1708,-0.38,0.54,0.03,2024-03-22 16:00:08.797,0.6609841147864297,0
1709,1709,-0.41,0.43,0.0,2024-03-22 16:00:08.831,0.5941380311005179,0
1710,1710,-0.41,0.27,0.0,2024-03-22 16:00:08.835,0.4909175083453431,0
1711,1711,-0.42,0.16,0.04,2024-03-22 16:00:08.839,0.4512205669071391,0
1712,1712,-0.46,0.05,0.07,2024-03-22 16:00:08.843,0.4679743582719036,0
1713,1713,-0.49,-0.03,0.09,2024-03-22 16:00:08.882,0.4990991885387112,0
1714,1714,-0.51,-0.11,0.12,2024-03-22 16:00:08.886,0.5353503525729669,0
1715,1715,-0.51,-0.2,0.13,2024-03-22 16:00:08.890,0.5630275304103699,0
1716,1716,-0.51,-0.26,0.13,2024-03-22 16:00:08.925,0.5870264048575669,0
1717,1717,-0.51,-0.32,0.11,2024-03-22 16:00:08.928,0.6120457499239742,0
1718,1718,-0.48,-0.34,0.08,2024-03-22 16:00:08.932,0.5936328831862332,0
1719,1719,-0.43,-0.35,0.09,2024-03-22 16:00:08.967,0.5616938667993446,0
1720,1720,-0.38,-0.35,0.08,2024-03-22 16:00:08.971,0.5227810249043092,0
1721,1721,-0.32,-0.31,0.06,2024-03-22 16:00:08.975,0.44955533585978047,0
1722,1722,-0.22,-0.18,0.03,2024-03-22 16:00:09.014,0.28583211855912904,0
1723,1723,-0.11,0.29,-0.04,2024-03-22 16:00:09.018,0.31272991542223777,0
1724,1724,0.13,6.38,0.27,2024-03-22 16:00:09.022,6.387033740321089,0
1725,1725,2.11,2.51,0.32,2024-03-22 16:00:09.063,3.294631997659222,0
1726,1726,-1.01,4.17,1.35,2024-03-22 16:00:09.068,4.497943974751131,0
1727,1727,-0.59,1.17,0.59,2024-03-22 16:00:09.101,1.4370455803487932,0
1728,1728,0.22,2.15,0.54,2024-03-22 16:00:09.105,2.2276669409945464,0
1729,1729,0.45,2.25,0.48,2024-03-22 16:00:09.109,2.344226951470356,0
1730,1730,-0.08,1.08,0.27,2024-03-22 16:00:09.147,1.1161093136427094,0
1731,1731,-0.24,0.74,0.17,2024-03-22 16:00:09.151,0.7963039620647382,0
1732,1732,-0.34,0.48,0.1,2024-03-22 16:00:09.155,0.5966573556070519,0
1733,1733,-0.38,0.34,0.04,2024-03-22 16:00:09.190,0.5114684741017769,0
