,level_0,accX,accY,accZ,timestamp,Norm,label
0,0,-0.08,1.21,0.24,2024-03-22 15:26:51.475,1.2361634196173257,0
1,1,-0.02,0.93,0.27,2024-03-22 15:26:51.496,0.968607247546703,0
2,2,-0.0,0.52,0.17,2024-03-22 15:26:51.553,0.5470831746635972,0
3,3,-0.04,0.6,0.07,2024-03-22 15:26:51.555,0.6053924347066124,0
4,4,-0.15,0.49,0.02,2024-03-22 15:26:51.557,0.5128352561983234,0
5,5,-0.25,0.52,-0.08,2024-03-22 15:26:51.561,0.582494635168428,0
6,6,-0.26,0.62,-0.12,2024-03-22 15:26:51.594,0.6829348431585549,0
7,7,-0.16,0.65,-0.06,2024-03-22 15:26:51.597,0.6720863039818622,0
8,8,-0.15,0.72,-0.02,2024-03-22 15:26:51.602,0.7357309290766563,0
9,9,-0.2,0.76,-0.04,2024-03-22 15:26:51.639,0.7868926229162402,0
10,10,-0.25,0.91,-0.09,2024-03-22 15:26:51.643,0.9479978902930112,0
11,11,-0.35,0.98,-0.17,2024-03-22 15:26:51.645,1.0544192714475584,0
12,12,-0.44,0.97,-0.22,2024-03-22 15:26:51.732,1.087612063191651,0
13,13,-0.49,0.91,-0.3,2024-03-22 15:26:51.734,1.0761970079869203,0
14,14,-0.55,0.89,-0.33,2024-03-22 15:26:51.736,1.0970414759707128,0
15,15,-0.62,0.93,-0.36,2024-03-22 15:26:51.739,1.1742657280190034,0
16,16,-0.95,1.58,-0.31,2024-03-22 15:26:51.821,1.869491909583992,0
17,17,-1.1,1.56,-0.27,2024-03-22 15:26:51.823,1.927822605946927,0
18,18,-1.2,1.15,0.07,2024-03-22 15:26:51.825,1.6635504200354132,0
19,19,-1.29,1.05,0.19,2024-03-22 15:26:51.828,1.674126637981727,0
20,20,-1.15,1.0,-0.04,2024-03-22 15:26:51.861,1.5244999180059011,0
21,21,-0.85,0.86,0.02,2024-03-22 15:26:51.863,1.2093386622447824,0
22,22,-0.64,0.84,1.18,2024-03-22 15:26:51.915,1.5835403373454051,0
23,23,0.71,0.46,1.2,2024-03-22 15:26:51.919,1.4682302271782854,0
24,24,-0.19,1.18,0.63,2024-03-22 15:26:51.922,1.351073647141413,0
25,25,-0.13,1.17,0.65,2024-03-22 15:26:51.959,1.344730456262518,0
26,26,-0.05,0.91,0.52,2024-03-22 15:26:51.961,1.049285471165974,0
27,27,-0.41,0.88,0.11,2024-03-22 15:26:51.964,0.9770363350459388,0
28,28,-0.32,1.01,-0.07,2024-03-22 15:26:51.967,1.0617909398747003,0
29,29,-0.58,0.71,0.06,2024-03-22 15:26:51.999,0.9187491496594704,0
30,30,-0.66,0.56,0.5,2024-03-22 15:26:52.038,0.999599919967984,0
31,31,-0.57,0.52,0.76,2024-03-22 15:26:52.040,1.0830050784737806,0
32,32,-0.65,0.48,0.74,2024-03-22 15:26:52.042,1.095673308974897,0
33,33,-0.68,0.81,0.34,2024-03-22 15:26:52.045,1.1109005356016353,0
34,34,-0.89,0.71,0.1,2024-03-22 15:26:52.086,1.1428910709249591,0
35,35,-0.81,0.71,0.16,2024-03-22 15:26:52.089,1.0889444430272832,0
36,36,-0.94,0.81,0.24,2024-03-22 15:26:52.091,1.2638433447227548,0
37,37,-0.96,0.83,0.32,2024-03-22 15:26:52.131,1.3087780560507576,0
38,38,-1.0,0.77,0.43,2024-03-22 15:26:52.134,1.3333416666406253,0
39,39,-0.99,0.69,0.37,2024-03-22 15:26:52.137,1.2621806526801145,0
40,40,-1.05,0.55,0.23,2024-03-22 15:26:52.179,1.207435298473587,0
41,41,-1.1,0.48,0.08,2024-03-22 15:26:52.182,1.2028299963003917,0
42,42,-1.15,0.43,0.13,2024-03-22 15:26:52.185,1.234625449276014,0
43,43,-1.09,0.36,-0.05,2024-03-22 15:26:52.228,1.148999564838908,0
44,44,-1.16,0.39,-0.21,2024-03-22 15:26:52.230,1.2416923934694937,0
45,45,-1.21,0.54,-0.47,2024-03-22 15:26:52.233,1.405916071463727,0
46,46,-1.09,0.73,-0.14,2024-03-22 15:26:52.266,1.3193180056377614,0
47,47,-1.44,0.66,0.03,2024-03-22 15:26:52.316,1.5843295111813072,0
48,48,-1.33,0.36,-0.19,2024-03-22 15:26:52.319,1.390898989862312,0
49,49,-0.75,0.58,0.37,2024-03-22 15:26:52.321,1.017742600071354,0
50,50,-0.28,0.44,0.34,2024-03-22 15:26:52.323,0.6225752966509353,0
51,51,0.04,-0.05,-0.01,2024-03-22 15:26:52.356,0.0648074069840786,0
52,52,0.05,-0.05,-0.01,2024-03-22 15:26:52.358,0.0714142842854285,0
53,53,0.04,-0.05,-0.0,2024-03-22 15:26:52.361,0.0640312423743284,0
54,54,0.81,-0.04,3.42,2024-03-22 15:26:52.403,3.5148399679075006,0
55,55,6.98,-4.97,1.88,2024-03-22 15:26:52.406,8.772439797456578,0
56,56,1.01,-0.18,0.53,2024-03-22 15:26:52.409,1.1547294055318762,0
57,57,0.2,2.27,-0.4,2024-03-22 15:26:52.449,2.3136335059814463,0
58,58,-0.33,0.2,1.04,2024-03-22 15:26:52.452,1.1092790451459904,0
59,59,-0.79,0.08,0.23,2024-03-22 15:26:52.454,0.8266801074176153,0
60,60,0.01,0.15,0.9,2024-03-22 15:26:52.543,0.9124691775616314,0
61,61,0.25,0.05,0.34,2024-03-22 15:26:52.545,0.4249705872175156,0
62,62,-0.43,0.13,0.87,2024-03-22 15:26:52.547,0.9791322688993556,0
63,63,-0.27,0.23,0.61,2024-03-22 15:26:52.550,0.705620294492725,0
64,64,-0.46,0.33,0.71,2024-03-22 15:26:52.592,0.9080748867797191,0
65,65,-0.58,0.26,0.74,2024-03-22 15:26:52.628,0.975499871860576,0
66,66,-0.73,0.22,0.8,2024-03-22 15:26:52.631,1.1051244273836318,0
67,67,-0.83,0.15,0.77,2024-03-22 15:26:52.634,1.1420595431062253,0
68,68,-0.83,0.12,0.7,2024-03-22 15:26:52.637,1.0923827168167757,0
69,69,-0.87,0.12,0.64,2024-03-22 15:26:52.639,1.0866922287382017,0
70,70,-0.88,0.18,0.58,2024-03-22 15:26:52.722,1.0692053123698928,0
71,71,-0.95,0.18,0.57,2024-03-22 15:26:52.724,1.1224081254160627,0
72,72,-1.0,0.23,0.57,2024-03-22 15:26:52.727,1.1737972567696688,0
73,73,-1.06,0.32,0.58,2024-03-22 15:26:52.730,1.2499599993599797,0
74,74,-1.08,0.47,0.64,2024-03-22 15:26:52.762,1.3404849868610988,0
75,75,-1.1,0.48,0.65,2024-03-22 15:26:52.814,1.364880947189168,0
76,76,-1.05,0.48,0.69,2024-03-22 15:26:52.855,1.3449907062875937,0
77,77,-1.05,0.49,0.7,2024-03-22 15:26:52.859,1.3537355724069602,0
78,78,-1.06,0.49,0.74,2024-03-22 15:26:52.861,1.3824977396003222,0
79,79,-0.97,0.38,0.77,2024-03-22 15:26:52.863,1.295453588516393,0
80,80,-0.99,0.34,0.76,2024-03-22 15:26:52.902,1.2935609765295175,0
81,81,-0.97,0.3,0.74,2024-03-22 15:26:52.903,1.256383699353028,0
82,82,-0.93,0.31,0.72,2024-03-22 15:26:52.906,1.216305882580529,0
83,83,-0.89,0.3,0.68,2024-03-22 15:26:52.944,1.1595257651298656,0
84,84,-0.89,0.25,0.64,2024-03-22 15:26:52.947,1.1243664882946307,0
85,85,-0.88,0.22,0.61,2024-03-22 15:26:52.949,1.0931148155614765,0
86,86,-0.9,0.25,0.57,2024-03-22 15:26:52.997,1.0942577392917996,0
87,87,-0.94,0.25,0.54,2024-03-22 15:26:53.034,1.1125196627475848,0
88,88,-0.97,0.25,0.51,2024-03-22 15:26:53.039,1.1240551587889271,0
89,89,-0.94,0.22,0.49,2024-03-22 15:26:53.123,1.082635672791175,0
90,90,-0.91,0.21,0.47,2024-03-22 15:26:53.167,1.0455142275454696,0
91,91,-0.84,0.19,0.46,2024-03-22 15:26:53.170,0.9763708311906906,0
92,92,-0.81,0.19,0.45,2024-03-22 15:26:53.212,0.9458858282054976,0
93,93,-0.81,0.21,0.42,2024-03-22 15:26:53.214,0.9362691920596342,0
94,94,-0.91,0.18,0.39,2024-03-22 15:26:53.217,1.0062802790475425,0
95,95,-0.93,0.17,0.4,2024-03-22 15:26:53.220,1.0265476121447072,0
96,96,-0.97,0.2,0.39,2024-03-22 15:26:53.258,1.0644247272588137,0
97,97,-1.0,0.23,0.38,2024-03-22 15:26:53.262,1.0942120452636226,0
98,98,-0.99,0.24,0.36,2024-03-22 15:26:53.265,1.0804165863221464,0
99,99,-0.99,0.26,0.35,2024-03-22 15:26:53.304,1.0817578287213827,0
100,100,-0.99,0.27,0.33,2024-03-22 15:26:53.307,1.0779146533933008,0
101,101,-0.99,0.3,0.33,2024-03-22 15:26:53.393,1.0858176642512314,0
102,102,-1.0,0.32,0.32,2024-03-22 15:26:53.396,1.0976338187209795,0
103,103,-0.97,0.52,0.04,2024-03-22 15:26:53.399,1.1013173929435602,0
104,104,-1.05,0.3,0.06,2024-03-22 15:26:53.401,1.0936635680134912,0
105,105,-1.18,0.21,0.16,2024-03-22 15:26:53.443,1.2091732712891068,0
106,106,-1.09,0.34,0.27,2024-03-22 15:26:53.445,1.1732859838931002,0
107,107,-0.95,0.44,0.28,2024-03-22 15:26:53.447,1.0837435120913066,0
108,108,-0.96,0.42,0.21,2024-03-22 15:26:53.483,1.0686907878334124,0
109,109,-0.97,0.43,0.18,2024-03-22 15:26:53.485,1.0761970079869203,0
110,110,-0.97,0.47,0.2,2024-03-22 15:26:53.488,1.096266390983505,0
111,111,-0.95,0.47,0.19,2024-03-22 15:26:53.522,1.0768008172359451,0
112,112,-0.92,0.47,0.19,2024-03-22 15:26:53.524,1.0504284840006957,0
113,113,-0.89,0.46,0.19,2024-03-22 15:26:53.574,1.0197058399362045,0
114,114,-0.85,0.46,0.19,2024-03-22 15:26:53.576,0.98498730956292,0
115,115,-0.83,0.44,0.19,2024-03-22 15:26:53.667,0.9584362263604188,0
116,116,-0.85,0.41,0.17,2024-03-22 15:26:53.670,0.9589056262218926,0
117,117,-0.85,0.39,0.16,2024-03-22 15:26:53.674,0.9487887014504336,0
118,118,-0.83,0.38,0.16,2024-03-22 15:26:53.676,0.9267685795278128,0
119,119,-0.76,0.36,0.24,2024-03-22 15:26:53.703,0.8745284443630179,0
120,120,-0.76,0.37,0.27,2024-03-22 15:26:53.705,0.8873556220591606,0
121,121,-0.75,0.36,0.3,2024-03-22 15:26:53.708,0.8843641783790205,0
122,122,-0.76,0.36,0.32,2024-03-22 15:26:53.756,0.8997777503361595,0
123,123,-0.78,0.36,0.33,2024-03-22 15:26:53.759,0.920271699010678,0
124,124,-0.81,0.37,0.35,2024-03-22 15:26:53.762,0.9568176419778224,0
125,125,-0.84,0.39,0.5,2024-03-22 15:26:53.801,1.0524732775705044,0
126,126,-0.89,0.43,0.42,2024-03-22 15:26:53.805,1.0739646176667088,0
127,127,-0.95,0.46,0.47,2024-03-22 15:26:53.809,1.1554220008291345,0
128,128,-1.0,0.43,0.48,2024-03-22 15:26:53.889,1.1896638180595391,0
129,129,-1.1,0.39,0.48,2024-03-22 15:26:53.891,1.2619429464123963,0
130,130,-1.59,-0.4,0.33,2024-03-22 15:26:53.894,1.672423391369542,0
131,131,-1.79,-0.48,0.23,2024-03-22 15:26:53.896,1.8674581655287488,0
132,132,-1.11,0.2,0.23,2024-03-22 15:26:53.933,1.151086443322134,0
133,133,-1.03,0.25,0.29,2024-03-22 15:26:53.937,1.0988630487917956,0
134,134,-0.91,0.41,0.27,2024-03-22 15:26:53.939,1.0339729203417274,0
135,135,-0.86,0.42,0.39,2024-03-22 15:26:53.981,1.0334892355511014,0
136,136,-0.81,0.37,0.4,2024-03-22 15:26:53.983,0.9762171889492626,0
137,137,-0.68,0.37,0.37,2024-03-22 15:26:53.986,0.8580209787645056,0
138,138,-0.72,0.38,0.35,2024-03-22 15:26:54.022,0.8861715409558129,0
139,139,-0.69,0.39,0.35,2024-03-22 15:26:54.025,0.8664294547163086,0
140,140,-0.67,0.44,0.33,2024-03-22 15:26:54.027,0.8668333173107735,0
141,141,-0.67,0.45,0.33,2024-03-22 15:26:54.065,0.8719518335321051,0
142,142,-0.67,0.46,0.3,2024-03-22 15:26:54.068,0.8663140308225419,0
143,143,-0.7,0.45,0.28,2024-03-22 15:26:54.070,0.8780091115700337,0
144,144,-0.7,0.4,0.25,2024-03-22 15:26:54.114,0.8440971508067066,0
145,145,-0.81,0.35,0.21,2024-03-22 15:26:54.116,0.907028114227999,0
146,146,-0.91,0.27,0.14,2024-03-22 15:26:54.119,0.9594790253048786,0
147,147,-0.99,0.19,0.11,2024-03-22 15:26:54.156,1.014051280754578,0
148,148,-1.14,0.15,0.06,2024-03-22 15:26:54.159,1.151390463743729,0
149,149,-1.23,0.09,0.01,2024-03-22 15:26:54.161,1.2333288288206028,0
150,150,-1.3,0.09,-0.02,2024-03-22 15:26:54.202,1.3032651303552936,0
151,151,-1.29,0.06,0.01,2024-03-22 15:26:54.205,1.2914333122542565,0
152,152,-1.27,0.12,0.05,2024-03-22 15:26:54.208,1.2766362050325848,0
153,153,-1.21,0.2,0.2,2024-03-22 15:26:54.246,1.2426182036329585,0
154,154,-1.16,0.28,0.29,2024-03-22 15:26:54.248,1.22804723036209,0
155,155,-1.09,0.34,0.37,2024-03-22 15:26:54.252,1.200249973963757,0
156,156,-1.04,0.39,0.45,2024-03-22 15:26:54.295,1.198415620725965,0
157,157,-1.04,0.42,0.52,2024-03-22 15:26:54.297,1.2362847568420472,0
158,158,-1.09,0.49,0.56,2024-03-22 15:26:54.300,1.3197727077038683,0
159,159,-1.02,0.56,0.67,2024-03-22 15:26:54.336,1.3427211177307077,0
160,160,-0.95,0.56,0.62,2024-03-22 15:26:54.381,1.2651086909827156,0
161,161,-0.96,0.53,0.62,2024-03-22 15:26:54.383,1.259722191596227,0
162,162,-0.96,0.49,0.62,2024-03-22 15:26:54.386,1.2434226956268732,0
163,163,-0.78,0.48,0.55,2024-03-22 15:26:54.424,1.0683164325236227,0
164,164,-0.67,0.49,0.48,2024-03-22 15:26:54.472,0.9588534820294496,0
165,165,-0.6,0.47,0.41,2024-03-22 15:26:54.473,0.8654478609367522,0
166,166,-0.56,0.3,0.41,2024-03-22 15:26:54.476,0.7561084578286372,0
167,167,-0.54,0.3,0.48,2024-03-22 15:26:54.479,0.7823042886243179,0
168,168,-0.57,0.41,0.47,2024-03-22 15:26:54.519,0.8449260322655469,0
169,169,-0.63,0.44,0.44,2024-03-22 15:26:54.558,0.8854942122905152,0
170,170,-0.66,0.49,0.4,2024-03-22 15:26:54.561,0.914166286842826,0
171,171,-0.7,0.54,0.37,2024-03-22 15:26:54.563,0.9583840566286566,0
172,172,-0.71,0.56,0.37,2024-03-22 15:26:54.566,0.9770363350459388,0
173,173,-0.72,0.55,0.42,2024-03-22 15:26:54.658,0.9986490875177326,0
174,174,-0.73,0.51,0.48,2024-03-22 15:26:54.660,1.011632344283238,0
175,175,-0.73,0.46,0.53,2024-03-22 15:26:54.662,1.012620363216146,0
176,176,-0.72,0.42,0.57,2024-03-22 15:26:54.665,1.00980196078241,0
177,177,-0.68,0.36,0.66,2024-03-22 15:26:54.704,1.013706071797935,0
178,178,-0.7,0.38,0.67,2024-03-22 15:26:54.706,1.0408169867945083,0
179,179,-0.73,0.41,0.66,2024-03-22 15:26:54.708,1.066114440386209,0
180,180,-0.74,0.41,0.65,2024-03-22 15:26:54.744,1.06686456497533,0
181,181,-0.77,0.4,0.63,2024-03-22 15:26:54.755,1.0722872749408154,0
182,182,-0.8,0.38,0.6,2024-03-22 15:26:54.756,1.0697663296253066,0
183,183,-0.85,0.36,0.58,2024-03-22 15:26:54.788,1.0901834707974616,0
184,184,-0.88,0.35,0.55,2024-03-22 15:26:54.791,1.095171219490359,0
185,185,-0.93,0.32,0.52,2024-03-22 15:26:54.794,1.112519662747585,0
186,186,-0.95,0.33,0.5,2024-03-22 15:26:54.832,1.1231206524679351,0
187,187,-1.0,0.33,0.49,2024-03-22 15:26:54.835,1.161464592658769,0
188,188,-1.02,0.36,0.45,2024-03-22 15:26:54.838,1.1715374513859982,0
189,189,-1.04,0.41,0.44,2024-03-22 15:26:54.881,1.2013742131409346,0
190,190,-1.06,0.46,0.42,2024-03-22 15:26:54.884,1.2294714311442947,0
191,191,-1.1,0.49,0.42,2024-03-22 15:26:54.887,1.27534309109353,0
192,192,-1.14,0.53,0.43,2024-03-22 15:26:54.925,1.3286835590162165,0
193,193,-1.17,0.56,0.42,2024-03-22 15:26:55.058,1.3634148304899725,0
194,194,-1.19,0.58,0.41,2024-03-22 15:26:55.060,1.3858571354941316,0
195,195,-1.16,0.6,0.38,2024-03-22 15:26:55.063,1.3601470508735445,0
196,196,-1.12,0.6,0.35,2024-03-22 15:26:55.065,1.317915020022156,0
197,197,-1.34,0.64,0.31,2024-03-22 15:26:55.104,1.517003625572464,0
198,198,-0.57,0.03,0.31,2024-03-22 15:26:55.105,0.6495382975621992,0
199,199,-0.62,0.12,0.3,2024-03-22 15:26:55.145,0.6991423317179414,0
200,200,-0.69,0.2,0.24,2024-03-22 15:26:55.147,0.7574298647399638,0
201,201,-0.74,0.26,0.26,2024-03-22 15:26:55.150,0.8263171304045439,0
202,202,-0.78,0.33,0.25,2024-03-22 15:26:55.152,0.8830628516702534,0
203,203,-0.85,0.37,0.23,2024-03-22 15:26:55.193,0.9551439682058406,0
204,204,-1.1,0.5,0.07,2024-03-22 15:26:55.197,1.2103305333668155,0
205,205,-1.13,0.33,0.06,2024-03-22 15:26:55.286,1.1787281281109736,0
206,206,-1.04,0.39,0.0,2024-03-22 15:26:55.289,1.1107204868912792,0
207,207,-0.86,0.63,0.22,2024-03-22 15:26:55.292,1.088531120363584,0
208,208,-0.77,0.58,0.23,2024-03-22 15:26:55.373,0.991060038544588,0
209,209,-0.64,0.54,0.16,2024-03-22 15:26:55.377,0.8525256594378846,0
210,210,-0.69,0.49,0.23,2024-03-22 15:26:55.468,0.8769834662067466,0
211,211,-0.71,0.49,0.21,2024-03-22 15:26:55.471,0.887862601982987,0
212,212,-0.75,0.46,0.14,2024-03-22 15:26:55.509,0.8908984229416954,0
213,213,-0.71,0.43,0.09,2024-03-22 15:26:55.513,0.8349251463454672,0
214,214,-0.79,0.38,0.06,2024-03-22 15:26:55.555,0.8786922100485471,0
215,215,-1.08,0.36,0.39,2024-03-22 15:26:55.558,1.2033702672078948,0
216,216,-1.1,0.48,0.39,2024-03-22 15:26:55.560,1.2619429464123963,0
217,217,-1.08,0.56,0.4,2024-03-22 15:26:55.563,1.2806248474865698,0
218,218,-1.14,0.51,0.42,2024-03-22 15:26:55.647,1.317611475359865,0
219,219,-1.22,0.43,0.44,2024-03-22 15:26:55.650,1.3663454907160195,0
220,220,-1.25,0.37,0.45,2024-03-22 15:26:55.653,1.379093905432114,0
221,221,-1.26,0.36,0.49,2024-03-22 15:26:55.655,1.3990353819685906,0
222,222,-0.79,0.15,0.37,2024-03-22 15:26:55.828,0.8851553535961922,0
223,223,-0.7,0.2,0.36,2024-03-22 15:26:55.868,0.8121576201698781,0
224,224,-0.64,0.31,0.3,2024-03-22 15:26:55.870,0.7718160402582989,0
225,225,-0.58,0.53,0.25,2024-03-22 15:26:55.873,0.8244998483929514,0
226,226,-1.02,1.27,0.3,2024-03-22 15:26:55.914,1.6562910372274553,0
227,227,-1.03,0.17,-0.11,2024-03-22 15:26:55.917,1.0497142468310126,0
228,228,-1.14,-0.13,0.0,2024-03-22 15:26:55.920,1.1473883387938018,0
229,229,-1.16,-0.07,-0.15,2024-03-22 15:26:55.922,1.171750826754562,0
230,230,-1.17,0.04,0.2,2024-03-22 15:26:56.010,1.1876447280226523,0
231,231,-1.07,0.31,0.4,2024-03-22 15:26:56.094,1.1836384583140245,0
232,232,-1.11,0.55,0.35,2024-03-22 15:26:56.133,1.2872839624573904,0
233,233,-0.89,0.59,0.31,2024-03-22 15:26:56.277,1.111890282357032,0
234,234,-0.86,0.72,0.31,2024-03-22 15:26:56.359,1.1636580253665594,0
235,235,-0.45,0.72,0.23,2024-03-22 15:26:56.362,0.8796590248499699,0
236,236,-0.75,0.58,0.53,2024-03-22 15:26:56.363,1.0861859877571614,0
237,237,-0.73,0.7,0.59,2024-03-22 15:26:56.366,1.1708970919769166,0
238,238,-1.26,-0.29,0.44,2024-03-22 15:26:56.407,1.3657598617619424,0
239,239,-1.37,0.48,-0.16,2024-03-22 15:26:56.411,1.4604451376207188,0
240,240,-1.15,0.52,-0.08,2024-03-22 15:26:56.413,1.2646343345014794,0
241,241,-1.03,0.31,0.04,2024-03-22 15:26:56.458,1.0763828315241748,0
242,242,-1.02,0.31,0.07,2024-03-22 15:26:56.460,1.068363234110946,0
243,243,-1.04,0.35,0.28,2024-03-22 15:26:56.463,1.1324751652906129,0
244,244,-0.91,0.31,0.25,2024-03-22 15:26:56.545,0.993327740476425,0
245,245,-0.71,0.33,0.25,2024-03-22 15:26:56.547,0.8218880702382776,0
246,246,-0.64,0.39,0.26,2024-03-22 15:26:56.549,0.7932843122109501,0
247,247,-0.63,0.36,0.34,2024-03-22 15:26:56.551,0.8013114251026251,0
248,248,-0.42,0.45,0.34,2024-03-22 15:26:56.589,0.7032069396699666,0
249,249,-0.46,0.38,0.43,2024-03-22 15:26:56.591,0.7354590403278757,0
250,250,-0.38,0.4,0.39,2024-03-22 15:26:56.594,0.6756478372643547,0
251,251,-0.43,0.35,0.46,2024-03-22 15:26:56.628,0.720416546173115,0
252,252,-0.47,0.31,0.46,2024-03-22 15:26:56.631,0.7270488291717414,0
253,253,-0.52,0.27,0.46,2024-03-22 15:26:56.634,0.7449161026585478,0
254,254,-0.57,0.25,0.47,2024-03-22 15:26:56.724,0.7799358948016176,0
255,255,-0.64,0.25,0.46,2024-03-22 15:26:56.816,0.8268615361715648,0
256,256,-0.68,0.31,0.43,2024-03-22 15:26:56.819,0.8622064717919948,0
257,257,-0.85,-0.3,0.4,2024-03-22 15:26:56.857,0.986154146165801,0
258,258,-1.9,-0.53,-0.55,2024-03-22 15:26:56.903,2.0477792849816603,0
259,259,-1.57,-0.48,0.18,2024-03-22 15:26:56.906,1.6515750058656131,0
260,260,-0.97,0.57,0.59,2024-03-22 15:26:56.909,1.2703936397825677,0
261,261,-0.84,0.48,0.5,2024-03-22 15:26:56.911,1.0890362712049586,0
262,262,-0.48,0.35,0.38,2024-03-22 15:26:56.948,0.7051950084905593,0
263,263,-0.46,0.33,0.28,2024-03-22 15:26:56.951,0.6315853069855252,0
264,264,-0.52,0.24,0.3,2024-03-22 15:26:56.953,0.6465291950097846,0
265,265,-0.67,0.24,0.29,2024-03-22 15:26:56.997,0.768505042273634,0
266,266,-0.72,0.29,0.33,2024-03-22 15:26:56.999,0.8434453153583816,0
267,267,-0.78,0.35,0.38,2024-03-22 15:26:57.001,0.9355746896961248,0
268,268,-0.86,0.41,0.43,2024-03-22 15:26:57.036,1.045275083411061,0
269,269,-0.97,0.45,0.53,2024-03-22 15:26:57.039,1.193440404879942,0
270,270,-1.05,0.47,0.59,2024-03-22 15:26:57.043,1.2928650354928777,0
271,271,-1.05,0.4,0.59,2024-03-22 15:26:57.080,1.2690941651429968,0
272,272,-0.97,0.27,0.58,2024-03-22 15:26:57.129,1.161981066971403,0
273,273,-0.89,0.19,0.55,2024-03-22 15:26:57.131,1.0633437826027856,0
274,274,-0.86,0.13,0.53,2024-03-22 15:26:57.171,1.0185283501208986,0
275,275,-0.81,0.08,0.51,2024-03-22 15:26:57.216,0.9605206921248496,0
276,276,-0.74,0.1,0.48,2024-03-22 15:26:57.355,0.8876936408468858,0
277,277,-0.72,0.13,0.48,2024-03-22 15:26:57.357,0.8750428560933459,0
278,278,-0.65,0.23,0.62,2024-03-22 15:26:57.360,0.9272540105062906,0
279,279,-0.66,0.28,0.53,2024-03-22 15:26:57.363,0.8915716460273958,0
280,280,-0.66,0.31,0.57,2024-03-22 15:26:57.442,0.925526876973327,0
281,281,-1.07,0.45,0.59,2024-03-22 15:26:57.446,1.302113666313352,0
282,282,-1.15,0.44,0.54,2024-03-22 15:26:57.495,1.3445073447177591,0
283,283,-1.16,-0.11,0.2,2024-03-22 15:26:57.534,1.1822436297142818,0
284,284,-1.91,1.94,-1.2,2024-03-22 15:26:57.538,2.9751806667831118,0
285,285,-1.31,1.26,-1.68,2024-03-22 15:26:57.541,2.47509595773578,0
286,286,-0.53,-0.06,-1.35,2024-03-22 15:26:57.579,1.4515508947329403,0
287,287,-1.18,0.25,-0.1,2024-03-22 15:26:57.582,1.2103305333668155,0
288,288,-0.76,-0.16,0.27,2024-03-22 15:26:57.585,0.8222530024268686,0
289,289,-0.64,-0.0,0.25,2024-03-22 15:26:57.587,0.6870953354520754,0
290,290,-0.63,0.07,0.08,2024-03-22 15:26:57.621,0.6389053137985315,0
291,291,-0.87,0.21,0.11,2024-03-22 15:26:57.668,0.9017205775626947,0
292,292,-0.96,0.35,0.11,2024-03-22 15:26:57.672,1.0277159140540737,0
293,293,-0.99,0.47,0.08,2024-03-22 15:26:57.763,1.0988175462741756,0
294,294,-1.14,0.49,0.22,2024-03-22 15:26:57.766,1.260198397078809,0
295,295,-1.11,0.52,0.36,2024-03-22 15:26:57.769,1.27753669223236,0
296,296,-0.79,0.41,0.41,2024-03-22 15:26:57.808,0.9799489782636644,0
297,297,-0.48,0.43,0.57,2024-03-22 15:26:57.810,0.8603487664894975,0
298,298,-0.37,0.46,0.61,2024-03-22 15:26:57.851,0.8488816171881683,0
299,299,-0.34,0.47,0.62,2024-03-22 15:26:57.853,0.8490583018850943,0
300,300,-0.33,0.45,0.62,2024-03-22 15:26:57.856,0.8341462701469089,0
301,301,-0.36,0.41,0.61,2024-03-22 15:26:57.859,0.8184130986244049,0
302,302,-0.37,0.39,0.58,2024-03-22 15:26:57.899,0.7908223567907018,0
303,303,-0.39,0.37,0.56,2024-03-22 15:26:57.901,0.776273147803014,0
304,304,-0.45,0.36,0.52,2024-03-22 15:26:57.903,0.7762087348130012,0
305,305,-0.52,0.37,0.47,2024-03-22 15:26:57.937,0.7925906888173744,0
306,306,-0.58,0.4,0.45,2024-03-22 15:26:57.942,0.8360023923410747,0
307,307,-0.7,0.37,0.38,2024-03-22 15:26:57.946,0.8782368700982668,0
308,308,-0.83,0.4,0.35,2024-03-22 15:26:57.980,0.9855962662266938,0
309,309,-0.89,0.42,0.18,2024-03-22 15:26:57.983,1.000449898795537,0
310,310,-4.0,-0.8,0.49,2024-03-22 15:26:57.986,4.108539886626391,0
311,311,-2.34,0.53,-2.52,2024-03-22 15:26:58.120,3.479497090097935,0
312,312,-1.75,-0.39,-1.82,2024-03-22 15:26:58.123,2.5547994050414213,0
313,313,-2.34,-0.04,-1.85,2024-03-22 15:26:58.126,2.983236497497307,0
314,314,-2.61,0.12,-1.81,2024-03-22 15:26:58.128,3.178458745996241,0
315,315,-0.91,0.19,0.39,2024-03-22 15:26:58.162,1.0081170566953028,0
316,316,-0.47,0.37,0.39,2024-03-22 15:26:58.165,0.714072825417688,0
317,317,-0.4,0.3,0.29,2024-03-22 15:26:58.167,0.578013840664737,0
318,318,-0.44,0.24,0.24,2024-03-22 15:26:58.209,0.5556977595779922,0
319,319,-0.53,0.25,0.26,2024-03-22 15:26:58.212,0.6410928169929843,0
320,320,-0.65,0.32,0.33,2024-03-22 15:26:58.215,0.7961155694998058,0
321,321,-0.72,0.38,0.4,2024-03-22 15:26:58.218,0.9070832376358852,0
322,322,-0.78,0.43,0.47,2024-03-22 15:26:58.257,1.007074972382891,0
323,323,-0.89,0.46,0.54,2024-03-22 15:26:58.259,1.138112472473613,0
324,324,-0.95,0.43,0.57,2024-03-22 15:26:58.300,1.1884022887894483,0
325,325,-0.94,0.36,0.57,2024-03-22 15:26:58.302,1.1567627241573788,0
326,326,-0.89,0.28,0.55,2024-03-22 15:26:58.344,1.0830512453249843,0
327,327,-0.84,0.22,0.53,2024-03-22 15:26:58.347,1.0173003489628811,0
328,328,-0.77,0.17,0.49,2024-03-22 15:26:58.349,0.9283856957105704,0
329,329,-0.72,0.18,0.47,2024-03-22 15:26:58.388,0.8784645695758025,0
330,330,-0.69,0.24,0.45,2024-03-22 15:26:58.433,0.8580209787645054,0
331,331,-0.66,0.29,0.44,2024-03-22 15:26:58.436,0.8445708969648433,0
332,332,-0.63,0.37,0.44,2024-03-22 15:26:58.439,0.8528774824088159,0
333,333,-0.57,0.49,0.42,2024-03-22 15:26:58.441,0.8610458756651703,0
334,334,-0.49,0.52,0.36,2024-03-22 15:26:58.478,0.8000624975587844,0
335,335,-0.47,0.5,0.36,2024-03-22 15:26:58.481,0.7749193506423749,0
336,336,-0.47,0.48,0.34,2024-03-22 15:26:58.484,0.7529276193632426,0
337,337,-0.5,0.47,0.32,2024-03-22 15:26:58.525,0.7571657678474377,0
338,338,-0.58,0.43,0.32,2024-03-22 15:26:58.527,0.789746794865291,0
339,339,-0.7,0.43,0.32,2024-03-22 15:26:58.570,0.8816461875378354,0
340,340,-0.79,0.47,0.32,2024-03-22 15:26:58.572,0.973344748791506,0
341,341,-0.87,0.52,0.35,2024-03-22 15:26:58.575,1.0722872749408154,0
342,342,-1.04,0.58,0.38,2024-03-22 15:26:58.578,1.2499599993599797,0
343,343,-1.22,0.65,0.4,2024-03-22 15:26:58.581,1.4390621946253748,0
344,344,-1.3,0.64,0.46,2024-03-22 15:26:58.611,1.5202631351183913,0
345,345,-1.45,0.7,0.52,2024-03-22 15:26:58.614,1.6920106382644289,0
346,346,-1.55,0.71,0.57,2024-03-22 15:26:58.616,1.797637338286007,0
347,347,-1.66,0.72,0.6,2024-03-22 15:26:58.661,1.906305327065945,0
348,348,-1.76,0.69,0.62,2024-03-22 15:26:58.662,1.9894974239742051,0
349,349,-1.85,0.62,0.64,2024-03-22 15:26:58.665,2.053411795037712,0
350,350,-2.01,0.4,0.04,2024-03-22 15:26:58.705,2.049804868761902,0
351,351,-2.0,-0.28,0.53,2024-03-22 15:26:58.708,2.087893675453805,0
352,352,-1.32,0.13,0.4,2024-03-22 15:26:58.711,1.38538803228554,0
353,353,-0.84,-0.01,0.58,2024-03-22 15:26:58.755,1.0208329931972222,0
354,354,-0.85,-0.15,0.23,2024-03-22 15:26:58.759,0.8932524839036272,0
355,355,-0.8,-0.17,0.42,2024-03-22 15:26:58.763,0.9194019795497508,0
356,356,-0.87,-0.01,0.26,2024-03-22 15:26:58.794,0.9080748867797191,0
357,357,-1.04,0.05,0.05,2024-03-22 15:26:58.797,1.042401074443038,0
358,358,-1.06,0.04,0.06,2024-03-22 15:26:58.799,1.062449998823474,0
359,359,-1.12,0.25,-0.21,2024-03-22 15:26:58.891,1.1666190466471908,0
360,360,-1.19,0.21,0.03,2024-03-22 15:26:58.893,1.2087596948939023,0
361,361,-1.21,0.27,-0.26,2024-03-22 15:26:58.896,1.2667280686871984,0
362,362,-0.92,0.49,-0.17,2024-03-22 15:26:58.899,1.0561249926026748,0
363,363,-0.79,0.41,0.43,2024-03-22 15:26:58.927,0.9884836872705588,0
364,364,-0.72,0.44,0.45,2024-03-22 15:26:58.974,0.9562949335848224,0
365,365,-0.7,0.42,0.42,2024-03-22 15:26:59.020,0.91804139340228,0
366,366,-0.66,0.45,0.38,2024-03-22 15:26:59.023,0.8845903006477067,0
367,367,-0.59,0.49,0.38,2024-03-22 15:26:59.026,0.8559205570612263,0
368,368,-0.56,0.55,0.38,2024-03-22 15:26:59.063,0.8720665112249181,0
369,369,-0.52,0.5,0.31,2024-03-22 15:26:59.154,0.785175139698144,0
370,370,-0.57,0.48,0.14,2024-03-22 15:26:59.196,0.7582216034906945,0
371,371,-0.62,0.52,0.38,2024-03-22 15:26:59.198,0.8939798655450804,0
372,372,-0.81,0.31,0.18,2024-03-22 15:26:59.201,0.8857764955111419,0
373,373,-0.95,0.16,0.48,2024-03-22 15:26:59.243,1.076336378647493,0
374,374,-0.97,0.31,0.6,2024-03-22 15:26:59.246,1.1819475453673909,0
375,375,-0.94,0.24,0.64,2024-03-22 15:26:59.249,1.162239218061411,0
376,376,-1.03,0.25,0.71,2024-03-22 15:26:59.252,1.2757350822173072,0
377,377,-1.09,0.2,0.73,2024-03-22 15:26:59.290,1.3270267518026908,0
378,378,-1.12,0.16,0.66,2024-03-22 15:26:59.292,1.3098091464026351,0
379,379,-1.08,0.18,0.64,2024-03-22 15:26:59.296,1.2682271089990151,0
380,380,-1.04,0.2,0.7,2024-03-22 15:26:59.381,1.269488085804668,0
381,381,-1.09,0.28,0.64,2024-03-22 15:26:59.382,1.2946428078817724,0
382,382,-1.15,0.55,0.41,2024-03-22 15:26:59.385,1.3390668392578466,0
383,383,-1.07,1.27,0.05,2024-03-22 15:26:59.387,1.6614150595200463,0
384,384,-0.93,0.75,0.31,2024-03-22 15:26:59.425,1.2343014218577244,0
385,385,-1.04,0.55,0.41,2024-03-22 15:26:59.427,1.2458731877683218,0
386,386,-1.02,0.51,0.41,2024-03-22 15:26:59.430,1.2118580774991763,0
387,387,-0.9,0.42,0.38,2024-03-22 15:26:59.518,1.0633908030446757,0
388,388,-0.62,0.5,0.43,2024-03-22 15:26:59.521,0.90515192095029,0
389,389,0.18,0.96,0.55,2024-03-22 15:26:59.523,1.120937107959229,0
390,390,-0.86,0.36,0.14,2024-03-22 15:26:59.526,0.942761899951414,0
391,391,-0.99,0.18,-0.23,2024-03-22 15:26:59.559,1.0321821544669332,0
392,392,-0.94,0.18,-0.1,2024-03-22 15:26:59.565,0.9622889378975528,0
393,393,-1.0,0.54,0.48,2024-03-22 15:26:59.568,1.2336936410632908,0
394,394,-1.25,0.23,0.21,2024-03-22 15:26:59.600,1.2882158204276175,0
395,395,-1.3,0.26,0.17,2024-03-22 15:26:59.650,1.336600164596728,0
396,396,-1.2,0.35,0.45,2024-03-22 15:26:59.653,1.3285330255586425,0
397,397,-0.9,0.6,0.44,2024-03-22 15:26:59.655,1.1677328461596,0
398,398,-0.85,0.66,0.43,2024-03-22 15:26:59.658,1.158878768465451,0
399,399,-0.59,0.56,0.36,2024-03-22 15:26:59.744,0.8895504482602433,0
400,400,-0.5,0.49,0.34,2024-03-22 15:26:59.786,0.7782673062643709,0
401,401,-0.51,0.51,0.34,2024-03-22 15:26:59.830,0.797370679169983,0
402,402,-0.54,0.59,0.36,2024-03-22 15:26:59.831,0.8770974860299167,0
403,403,-0.69,0.81,0.39,2024-03-22 15:26:59.834,1.1332696060514462,0
404,404,-0.66,0.73,0.56,2024-03-22 15:26:59.837,1.1322985472038725,0
405,405,-1.37,0.19,0.4,2024-03-22 15:26:59.873,1.4397916515940772,0
406,406,-1.23,0.59,-0.12,2024-03-22 15:26:59.877,1.369452445322582,0
407,407,-1.18,0.63,-0.42,2024-03-22 15:26:59.889,1.402034236386544,0
408,408,-1.13,0.41,-0.3,2024-03-22 15:26:59.918,1.2389511693363866,0
409,409,-1.08,0.3,-0.24,2024-03-22 15:26:59.920,1.146298390472568,0
410,410,-1.12,0.15,-0.21,2024-03-22 15:26:59.923,1.1493476410555683,0
411,411,-0.89,0.24,-0.08,2024-03-22 15:26:59.969,0.9252567211320326,0
412,412,-0.91,0.19,-0.12,2024-03-22 15:26:59.970,0.9373366524360393,0
413,413,-1.22,-0.14,-0.25,2024-03-22 15:26:59.973,1.2531959144523257,0
414,414,-1.38,0.04,-0.19,2024-03-22 15:27:00.054,1.3935924798878616,0
415,415,-1.38,0.28,-0.18,2024-03-22 15:27:00.056,1.419577401905229,0
416,416,-1.14,0.45,0.07,2024-03-22 15:27:00.058,1.2275992831539124,0
417,417,-1.35,0.67,-0.21,2024-03-22 15:27:00.061,1.5216767067941863,0
418,418,-0.72,0.83,0.56,2024-03-22 15:27:00.229,1.2332477447779908,0
419,419,-0.62,0.44,-0.31,2024-03-22 15:27:00.231,0.8210359310042405,0
420,420,-0.46,0.52,0.21,2024-03-22 15:27:00.234,0.7253275122315436,0
421,421,-0.39,0.39,0.22,2024-03-22 15:27:00.454,0.5938013135721409,0
422,422,-0.42,0.39,0.39,2024-03-22 15:27:00.456,0.6932532004974806,0
423,423,-1.04,-0.04,-0.07,2024-03-22 15:27:00.459,1.0431203190428229,0
424,424,-1.32,-0.34,-0.34,2024-03-22 15:27:00.500,1.4048487463068755,0
425,425,-1.86,-0.53,-0.76,2024-03-22 15:27:00.503,2.078003849852064,0
426,426,-0.39,0.24,0.46,2024-03-22 15:27:00.505,0.6490762667052309,0
427,427,-0.36,0.04,0.37,2024-03-22 15:27:00.508,0.5177837386399847,0
428,428,-0.36,0.04,0.4,2024-03-22 15:27:00.634,0.5396295025292817,0
429,429,-0.51,0.08,0.52,2024-03-22 15:27:00.726,0.7327346040688948,0
430,430,-0.6,0.22,0.57,2024-03-22 15:27:00.728,0.8563293758829017,0
431,431,-0.73,0.42,0.62,2024-03-22 15:27:00.768,1.0458011283222064,0
432,432,-0.95,0.66,0.63,2024-03-22 15:27:00.771,1.3171939872319491,0
433,433,-0.78,0.18,0.39,2024-03-22 15:27:00.773,0.8904493247793498,0
434,434,-0.7,0.25,0.31,2024-03-22 15:27:00.813,0.8053570636680354,0
435,435,-0.67,0.34,0.31,2024-03-22 15:27:00.814,0.8127730310486441,0
436,436,-0.65,0.37,0.33,2024-03-22 15:27:00.816,0.8174961773610933,0
437,437,-0.65,0.36,0.35,2024-03-22 15:27:00.818,0.8213403679352428,0
438,438,-0.7,0.36,0.35,2024-03-22 15:27:00.858,0.8614522621712708,0
439,439,-0.74,0.38,0.35,2024-03-22 15:27:00.861,0.9024965373894792,0
440,440,-0.81,0.45,0.36,2024-03-22 15:27:00.947,0.9940824915468536,0
441,441,-0.89,0.52,0.38,2024-03-22 15:27:00.994,1.0985900054160334,0
442,442,-0.92,0.58,0.36,2024-03-22 15:27:00.997,1.145600279329575,0
443,443,-1.13,0.69,0.47,2024-03-22 15:27:00.999,1.4049555153100042,0
444,444,-1.56,0.79,0.61,2024-03-22 15:27:01.001,1.851971922033377,0
445,445,-1.43,0.45,0.56,2024-03-22 15:27:01.037,1.6003124694883808,0
446,446,-1.13,0.14,0.48,2024-03-22 15:27:01.040,1.2356779515715248,0
447,447,-1.01,0.03,0.42,2024-03-22 15:27:01.042,1.0942577392917994,0
448,448,-0.87,-0.09,0.33,2024-03-22 15:27:01.083,0.9348261870529728,0
449,449,-0.79,-0.15,0.26,2024-03-22 15:27:01.086,0.8451035439518639,0
450,450,-0.74,-0.17,0.19,2024-03-22 15:27:01.088,0.7826876771739798,0
451,451,-0.62,-0.09,0.15,2024-03-22 15:27:01.127,0.6442049363362563,0
452,452,-0.7,-0.06,0.14,2024-03-22 15:27:01.128,0.7163797875428926,0
453,453,-0.69,0.06,0.13,2024-03-22 15:27:01.130,0.7046985170979146,0
454,454,-0.78,0.19,0.15,2024-03-22 15:27:01.175,0.8167006795638168,0
455,455,-0.92,0.34,0.2,2024-03-22 15:27:01.178,1.000999500499376,0
456,456,-1.03,0.42,0.2,2024-03-22 15:27:01.180,1.1301769772916097,0
457,457,-1.1,0.46,0.3,2024-03-22 15:27:01.218,1.2294714311442947,0
458,458,-1.17,0.46,0.33,2024-03-22 15:27:01.219,1.2997692102831178,0
459,459,-1.19,0.43,0.33,2024-03-22 15:27:01.259,1.3076314465475354,0
460,460,-1.1,0.38,0.3,2024-03-22 15:27:01.261,1.2018319350058897,0
461,461,-0.97,0.29,0.28,2024-03-22 15:27:01.262,1.0504284840006957,0
462,462,-0.89,0.25,0.23,2024-03-22 15:27:01.309,0.9526279441628824,0
463,463,-0.85,0.25,0.19,2024-03-22 15:27:01.313,0.9061456836513652,0
464,464,-0.83,0.26,0.16,2024-03-22 15:27:01.315,0.8843641783790205,0
465,465,-0.78,0.31,0.14,2024-03-22 15:27:01.352,0.8509406559801923,0
466,466,-0.77,0.33,0.13,2024-03-22 15:27:01.355,0.8477617589865681,0
467,467,-0.79,0.34,0.12,2024-03-22 15:27:01.357,0.8683893136145793,0
468,468,-0.79,0.32,0.13,2024-03-22 15:27:01.396,0.8622064717919949,0
469,469,-0.83,0.31,0.09,2024-03-22 15:27:01.442,0.8905616205518851,0
470,470,-0.86,0.3,0.08,2024-03-22 15:27:01.444,0.9143303560529968,0
471,471,-0.88,0.31,0.03,2024-03-22 15:27:01.446,0.9334880824091972,0
472,472,-0.9,0.32,0.02,2024-03-22 15:27:01.448,0.9554056729996948,0
473,473,-0.92,0.3,0.03,2024-03-22 15:27:01.487,0.9681425514871248,0
474,474,-0.92,0.25,0.06,2024-03-22 15:27:01.489,0.95524865872714,0
475,475,-0.9,0.25,0.09,2024-03-22 15:27:01.491,0.938402898546248,0
476,476,-0.92,0.27,0.15,2024-03-22 15:27:01.531,0.9704638066409276,0
477,477,-0.98,0.24,0.23,2024-03-22 15:27:01.622,1.034842983258813,0
478,478,-1.0,0.36,0.26,2024-03-22 15:27:01.624,1.0941663493271945,0
479,479,-1.03,0.38,0.27,2024-03-22 15:27:01.627,1.1305750749065715,0
480,480,-1.05,0.43,0.33,2024-03-22 15:27:01.629,1.1816513868311584,0
481,481,-1.03,0.35,0.34,2024-03-22 15:27:01.667,1.1397368117245317,0
482,482,-1.14,0.42,0.41,2024-03-22 15:27:01.669,1.2822246293064252,0
483,483,-1.14,0.41,0.38,2024-03-22 15:27:01.754,1.2696850003051938,0
484,484,-1.08,0.29,0.3,2024-03-22 15:27:01.755,1.1577996372429904,0
485,485,-0.92,0.2,0.27,2024-03-22 15:27:01.757,0.979438614717635,0
486,486,-0.85,0.11,0.24,2024-03-22 15:27:01.801,0.8900561780022651,0
487,487,-0.77,0.07,0.26,2024-03-22 15:27:01.934,0.8157205403813245,0
488,488,-0.96,0.28,0.33,2024-03-22 15:27:02.031,1.0530432089900206,0
489,489,-1.07,0.45,0.36,2024-03-22 15:27:02.034,1.2153188881935473,0
490,490,-1.16,0.43,0.41,2024-03-22 15:27:02.036,1.3033034949696098,0
491,491,-1.47,0.29,0.58,2024-03-22 15:27:02.073,1.6066735822811054,0
492,492,-0.89,0.08,0.49,2024-03-22 15:27:02.076,1.0191172650877818,0
493,493,-0.72,0.11,0.44,2024-03-22 15:27:02.117,0.8509406559801923,0
494,494,-0.71,-0.03,0.42,2024-03-22 15:27:02.120,0.8254695633395577,0
495,495,-0.66,-0.11,0.38,2024-03-22 15:27:02.163,0.7694803441284255,0
496,496,-0.71,-0.14,0.38,2024-03-22 15:27:02.166,0.8173738434767777,0
497,497,-0.84,-0.16,0.56,2024-03-22 15:27:02.169,1.022154587134451,0
498,498,-0.92,0.0,0.28,2024-03-22 15:27:02.170,0.9616652224137048,0
499,499,-0.75,-0.38,0.38,2024-03-22 15:27:02.209,0.9226592003551474,0
500,500,-0.79,-0.34,0.38,2024-03-22 15:27:02.212,0.9402659198333204,0
501,501,-0.88,-0.38,0.41,2024-03-22 15:27:02.253,1.042544963059148,0
502,502,-0.87,-0.37,0.39,2024-03-22 15:27:02.254,1.0226925246622272,0
503,503,-0.91,-0.31,0.43,2024-03-22 15:27:02.256,1.053138167573467,0
504,504,-0.91,-0.26,0.48,2024-03-22 15:27:02.257,1.0611785900591852,0
505,505,-0.97,-0.11,0.54,2024-03-22 15:27:02.302,1.115616421535646,0
506,506,-1.05,-0.13,0.6,2024-03-22 15:27:02.304,1.216305882580529,0
507,507,-0.95,-0.12,0.56,2024-03-22 15:27:02.347,1.1092790451459902,0
508,508,-0.95,-0.09,0.49,2024-03-22 15:27:02.349,1.072706856508338,0
509,509,-0.87,-0.18,0.39,2024-03-22 15:27:02.352,0.9702576977277738,0
510,510,-0.66,-0.21,0.35,2024-03-22 15:27:02.441,0.7760154637634484,0
511,511,-0.72,-0.24,0.2,2024-03-22 15:27:02.443,0.7848566748139434,0
512,512,-0.72,-0.28,0.13,2024-03-22 15:27:02.446,0.7833900688673555,0
513,513,-0.7,-0.25,0.13,2024-03-22 15:27:02.449,0.7545859791965392,0
514,514,-0.75,-0.07,0.26,2024-03-22 15:27:02.491,0.7968688725254613,0
515,515,-0.86,0.01,0.38,2024-03-22 15:27:02.493,0.9402659198333204,0
516,516,-0.91,0.08,0.48,2024-03-22 15:27:02.496,1.0319399207318225,0
517,517,-0.97,0.1,0.53,2024-03-22 15:27:02.581,1.1098648566379603,0
518,518,-0.98,0.06,0.59,2024-03-22 15:27:02.583,1.1454693361238442,0
519,519,-0.98,-0.03,0.61,2024-03-22 15:27:02.585,1.154729405531876,0
520,520,-0.94,-0.16,0.62,2024-03-22 15:27:02.588,1.1373653766490344,0
521,521,-0.67,-0.16,0.5,2024-03-22 15:27:02.622,0.8511756575466666,0
522,522,-0.67,-0.32,0.57,2024-03-22 15:27:02.663,0.936055553906925,0
523,523,-0.77,-0.44,0.26,2024-03-22 15:27:02.709,0.9241753080449616,0
524,524,-1.07,-0.51,0.29,2024-03-22 15:27:02.712,1.2202868515230345,0
525,525,-1.29,-0.33,-0.22,2024-03-22 15:27:02.749,1.349592531099665,0
526,526,-1.1,-0.27,0.06,2024-03-22 15:27:02.751,1.1342398335449166,0
527,527,-0.36,-0.13,0.19,2024-03-22 15:27:02.799,0.4273172123844299,0
528,528,-0.2,-0.61,0.52,2024-03-22 15:27:02.805,0.8261355820929154,0
529,529,-0.69,-0.38,0.19,2024-03-22 15:27:02.807,0.8103085831953157,0
530,530,-0.52,-0.58,0.05,2024-03-22 15:27:02.810,0.7805767098754612,0
531,531,-0.18,-0.54,-0.06,2024-03-22 15:27:02.836,0.5723635208501674,0
532,532,-0.51,-0.97,0.42,2024-03-22 15:27:02.838,1.173626857225072,0
533,533,-0.51,-0.73,0.39,2024-03-22 15:27:02.839,0.9721625378505386,0
534,534,-0.69,-0.64,0.31,2024-03-22 15:27:02.984,0.990858213873206,0
535,535,-1.38,-1.38,0.45,2024-03-22 15:27:02.986,2.002823007656942,0
536,536,-0.64,-0.29,-0.11,2024-03-22 15:27:02.988,0.7111961754677819,0
537,537,-0.68,-0.27,0.06,2024-03-22 15:27:02.991,0.7340980860893183,0
538,538,-0.68,-0.66,0.07,2024-03-22 15:27:03.075,0.950210502993942,0
539,539,-0.97,-0.59,0.14,2024-03-22 15:27:03.078,1.1439405578962571,0
540,540,-1.08,-0.84,1.96,2024-03-22 15:27:03.080,2.3903137869325857,0
541,541,-1.72,-1.1,0.54,2024-03-22 15:27:03.083,2.1118712081942874,0
542,542,-0.83,-0.41,0.33,2024-03-22 15:27:03.118,0.9828021163998376,0
543,543,-0.74,-0.45,0.44,2024-03-22 15:27:03.120,0.9714422267947797,0
544,544,-0.64,-0.39,0.46,2024-03-22 15:27:03.123,0.8793747778962051,0
545,545,-0.55,-0.15,0.36,2024-03-22 15:27:03.197,0.674240313241503,0
546,546,-0.51,-0.16,0.35,2024-03-22 15:27:03.199,0.6389053137985315,0
547,547,-0.71,-0.28,0.31,2024-03-22 15:27:03.252,0.8237718130647589,0
548,548,-0.86,-0.38,0.3,2024-03-22 15:27:03.254,0.9869143833180262,0
549,549,-1.03,-0.4,0.18,2024-03-22 15:27:03.257,1.1195088208674373,0
550,550,-1.08,-0.39,0.09,2024-03-22 15:27:03.261,1.151781229227148,0
551,551,-0.94,-0.32,0.18,2024-03-22 15:27:03.341,1.009158064923429,0
552,552,-0.91,-0.34,0.29,2024-03-22 15:27:03.343,1.013804714922948,0
553,553,-0.82,-0.32,0.36,2024-03-22 15:27:03.346,0.9509994742374992,0
554,554,-0.78,-0.26,0.39,2024-03-22 15:27:03.349,0.91,0
555,555,-0.8,-0.32,0.35,2024-03-22 15:27:03.430,0.93,0
556,556,-0.83,-0.3,0.37,2024-03-22 15:27:03.432,0.9569743988216194,0
557,557,-0.87,-0.24,0.6,2024-03-22 15:27:03.434,1.0837435120913066,0
558,558,-0.86,-0.24,0.07,2024-03-22 15:27:03.436,0.8956003573022958,0
559,559,-0.94,-0.38,0.27,2024-03-22 15:27:03.473,1.049237818609299,0
560,560,-0.94,-0.42,0.26,2024-03-22 15:27:03.477,1.0618851161966627,0
561,561,-0.92,-0.39,0.33,2024-03-22 15:27:03.481,1.0523307464861036,0
562,562,-0.84,-0.29,0.3,2024-03-22 15:27:03.566,0.937923237797209,0
563,563,-0.76,-0.23,0.44,2024-03-22 15:27:03.568,0.9077995373429092,0
564,564,-0.73,-0.12,0.53,2024-03-22 15:27:03.571,0.9100549433962764,0
565,565,-1.45,-0.83,0.44,2024-03-22 15:27:03.653,1.7277152543170995,0
566,566,-0.91,-0.53,0.28,2024-03-22 15:27:03.656,1.0896788517723923,0
567,567,-0.89,-0.33,0.37,2024-03-22 15:27:03.659,1.0187737727287645,0
568,568,-0.99,-0.28,0.4,2024-03-22 15:27:03.661,1.103856874780422,0
569,569,-0.86,-0.31,0.27,2024-03-22 15:27:03.695,0.953205119583398,0
570,570,-0.84,-0.29,0.31,2024-03-22 15:27:03.698,0.9411694852681952,0
571,571,-0.8,-0.3,0.34,2024-03-22 15:27:03.700,0.919565114605812,0
572,572,-0.84,-0.28,0.4,2024-03-22 15:27:03.747,0.9715966241192896,0
573,573,-0.79,-0.3,0.41,2024-03-22 15:27:03.749,0.9392550239418472,0
574,574,-0.79,-0.36,0.42,2024-03-22 15:27:03.752,0.9644169222903548,0
575,575,-0.74,-0.43,0.42,2024-03-22 15:27:03.791,0.953362470417207,0
576,576,-0.69,-0.51,0.45,2024-03-22 15:27:03.793,0.9688653157173086,0
577,577,-0.67,-0.53,0.49,2024-03-22 15:27:03.795,0.9848350115628506,0
578,578,-0.64,-0.53,0.51,2024-03-22 15:27:03.883,0.9749871794028884,0
579,579,-0.64,-0.51,0.51,2024-03-22 15:27:03.885,0.9642613753542136,0
580,580,-0.66,-0.46,0.47,2024-03-22 15:27:03.888,0.9317188417113824,0
581,581,-0.6,-0.49,0.5,2024-03-22 15:27:03.891,0.9220086767487604,0
582,582,-0.67,-0.61,0.47,2024-03-22 15:27:03.928,1.0207350292803712,0
583,583,-0.71,-0.66,0.49,2024-03-22 15:27:03.930,1.0861859877571611,0
584,584,-0.71,-0.66,0.52,2024-03-22 15:27:03.933,1.1000454536063498,0
585,585,-0.61,-0.63,0.55,2024-03-22 15:27:03.972,1.0351328417164631,0
586,586,-0.59,-0.6,0.57,2024-03-22 15:27:03.975,1.016366075781753,0
587,587,-0.61,-0.61,0.56,2024-03-22 15:27:03.977,1.0284940447080868,0
588,588,-0.62,-0.62,0.57,2024-03-22 15:27:04.010,1.0458011283222064,0
589,589,-0.65,-0.59,0.57,2024-03-22 15:27:04.013,1.0466613587975817,0
590,590,-0.59,-0.58,0.62,2024-03-22 15:27:04.016,1.0338762014864256,0
591,591,-0.56,-0.58,0.59,2024-03-22 15:27:04.057,0.9990495483208028,0
592,592,-0.58,-0.56,0.61,2024-03-22 15:27:04.060,1.0109896141899777,0
593,593,-0.6,-0.57,0.64,2024-03-22 15:27:04.065,1.0461835403025608,0
594,594,-0.5,-0.48,0.57,2024-03-22 15:27:04.140,0.8973850901368932,0
595,595,-0.38,-0.3,0.5,2024-03-22 15:27:04.141,0.6959885056522126,0
596,596,-0.4,-0.34,0.46,2024-03-22 15:27:04.143,0.697997134664606,0
597,597,-0.41,-0.41,0.53,2024-03-22 15:27:04.144,0.7855571271397135,0
598,598,-0.56,-0.26,0.54,2024-03-22 15:27:04.194,0.8202438661763952,0
599,599,-0.52,-0.3,0.48,2024-03-22 15:27:04.197,0.7686351540230254,0
600,600,-0.53,-0.29,0.49,2024-03-22 15:27:04.200,0.7778817390837761,0
601,601,-0.57,-0.26,0.52,2024-03-22 15:27:04.246,0.8141867107733951,0
602,602,-0.57,-0.24,0.55,2024-03-22 15:27:04.248,0.8276472678623424,0
603,603,-0.53,-0.24,0.56,2024-03-22 15:27:04.251,0.8075270893288968,0
604,604,-0.52,-0.26,0.51,2024-03-22 15:27:04.282,0.7733692520394123,0
605,605,-0.55,-0.29,0.54,2024-03-22 15:27:04.285,0.8235289915965316,0
606,606,-0.63,-0.28,0.58,2024-03-22 15:27:04.287,0.9009439494219382,0
607,607,-0.67,-0.28,0.61,2024-03-22 15:27:04.326,0.9483670175622938,0
608,608,-0.72,-0.28,0.65,2024-03-22 15:27:04.374,1.009603882718366,0
609,609,-0.77,-0.23,0.69,2024-03-22 15:27:04.377,1.0591978096654089,0
610,610,-0.8,-0.19,0.76,2024-03-22 15:27:04.420,1.1196874563912915,0
611,611,-0.84,-0.16,0.9,2024-03-22 15:27:04.463,1.2414507642270796,0
612,612,-0.99,-0.16,0.98,2024-03-22 15:27:04.465,1.4021768789992224,0
613,613,-1.22,-0.18,0.95,2024-03-22 15:27:04.467,1.5566952174398172,0
614,614,-1.42,-0.13,0.73,2024-03-22 15:27:04.470,1.601936328322696,0
615,615,-1.16,-0.2,0.68,2024-03-22 15:27:04.505,1.3594116374373144,0
616,616,-1.02,-0.16,0.74,2024-03-22 15:27:04.551,1.2702755606560334,0
617,617,-0.94,-0.2,0.83,2024-03-22 15:27:04.555,1.2698425099200294,0
618,618,-0.88,-0.22,0.75,2024-03-22 15:27:04.597,1.1769876804792818,0
619,619,-1.03,-0.74,0.57,2024-03-22 15:27:04.639,1.3904675472660266,0
620,620,-0.86,-0.22,0.76,2024-03-22 15:27:04.690,1.1685888926393233,0
621,621,-1.01,0.03,0.44,2024-03-22 15:27:04.732,1.102088925631684,0
622,622,-0.76,0.39,0.5,2024-03-22 15:27:04.735,0.9897979591815697,0
623,623,-0.65,0.48,0.57,2024-03-22 15:27:04.737,0.9888377015466188,0
624,624,-0.9,0.38,0.51,2024-03-22 15:27:04.739,1.102043556308007,0
625,625,-0.64,0.44,0.59,2024-03-22 15:27:04.827,0.9753460924205316,0
626,626,-0.66,0.28,0.54,2024-03-22 15:27:04.829,0.8975522268926751,0
627,627,-0.73,-0.04,0.51,2024-03-22 15:27:04.832,0.891403387922662,0
628,628,-0.86,0.17,0.49,2024-03-22 15:27:04.843,1.004290794541103,0
629,629,-0.85,0.3,0.4,2024-03-22 15:27:04.866,0.986154146165801,0
630,630,-0.82,0.23,0.36,2024-03-22 15:27:04.869,0.9246080250571048,0
631,631,-0.79,0.25,0.41,2024-03-22 15:27:04.872,0.9244998647917696,0
632,632,-0.75,0.26,0.39,2024-03-22 15:27:04.914,0.884420714366189,0
633,633,-0.75,0.28,0.39,2024-03-22 15:27:04.918,0.8905054744357275,0
634,634,-0.74,0.28,0.39,2024-03-22 15:27:04.921,0.8820997676000147,0
635,635,-0.74,0.28,0.38,2024-03-22 15:27:04.958,0.8777243302996676,0
636,636,-0.74,0.26,0.38,2024-03-22 15:27:05.004,0.871550342780037,0
637,637,-0.81,0.27,0.4,2024-03-22 15:27:05.008,0.9428679653058536,0
638,638,-0.87,0.19,0.32,2024-03-22 15:27:05.011,0.946255779374689,0
639,639,-0.92,0.18,0.32,2024-03-22 15:27:05.013,0.9905553997631834,0
640,640,-1.08,0.1,0.35,2024-03-22 15:27:05.050,1.1396929411029972,0
641,641,-1.11,0.07,0.33,2024-03-22 15:27:05.053,1.160129303138232,0
642,642,-1.18,0.05,0.31,2024-03-22 15:27:05.056,1.2210651088291729,0
643,643,-1.18,0.06,0.34,2024-03-22 15:27:05.097,1.2294714311442945,0
644,644,-1.16,0.14,0.3,2024-03-22 15:27:05.185,1.2063167080000177,0
645,645,-1.17,0.24,0.36,2024-03-22 15:27:05.188,1.2474373731775077,0
646,646,-1.12,0.21,0.41,2024-03-22 15:27:05.227,1.2110326172320875,0
647,647,-1.08,0.23,0.44,2024-03-22 15:27:05.230,1.1886547017532048,0
648,648,-1.05,0.37,0.49,2024-03-22 15:27:05.233,1.2163469899662678,0
649,649,-0.82,0.62,0.61,2024-03-22 15:27:05.236,1.1953660527219268,0
650,650,-0.84,0.28,0.5,2024-03-22 15:27:05.274,1.0168579055108928,0
651,651,-0.68,0.35,0.51,2024-03-22 15:27:05.277,0.919238815542512,0
652,652,-0.52,0.41,0.48,2024-03-22 15:27:05.279,0.8178630692236935,0
653,653,-0.39,0.38,0.38,2024-03-22 15:27:05.369,0.6640030120413611,0
654,654,-0.31,0.38,0.36,2024-03-22 15:27:05.370,0.6083584469702052,0
655,655,-0.33,0.36,0.45,2024-03-22 15:27:05.372,0.6640783086353597,0
656,656,-0.51,0.35,0.46,2024-03-22 15:27:05.403,0.7708436936240707,0
657,657,-0.81,0.56,0.44,2024-03-22 15:27:05.504,1.078563859954523,0
658,658,-0.85,0.74,0.49,2024-03-22 15:27:05.506,1.2289019488958424,0
659,659,-0.84,0.84,0.48,2024-03-22 15:27:05.509,1.2812493902437572,0
660,660,-0.88,0.88,0.41,2024-03-22 15:27:05.511,1.3103053079339944,0
661,661,-0.91,0.49,0.47,2024-03-22 15:27:05.596,1.1353853971229328,0
662,662,-0.87,0.16,0.54,2024-03-22 15:27:05.597,1.0363879582472966,0
663,663,-0.86,0.09,0.53,2024-03-22 15:27:05.600,1.014199191480648,0
664,664,-0.83,0.11,0.5,2024-03-22 15:27:05.603,0.9751922887307918,0
665,665,-0.78,0.36,0.48,2024-03-22 15:27:05.635,0.9840731680114034,0
666,666,-0.76,0.41,0.47,2024-03-22 15:27:05.638,0.9831581764904364,0
667,667,-0.73,0.45,0.46,2024-03-22 15:27:05.678,0.973139250056229,0
668,668,-0.7,0.5,0.42,2024-03-22 15:27:05.680,0.9572878355019456,0
669,669,-0.68,0.56,0.44,2024-03-22 15:27:05.683,0.9846826900072936,0
670,670,-0.66,0.6,0.43,2024-03-22 15:27:05.686,0.9902019995940222,0
671,671,-0.64,0.53,0.47,2024-03-22 15:27:05.722,0.95467271878901,0
672,672,-0.7,0.45,0.48,2024-03-22 15:27:05.725,0.9606768447297976,0
673,673,-0.78,0.42,0.49,2024-03-22 15:27:05.727,1.0123734488813898,0
674,674,-0.82,0.44,0.48,2024-03-22 15:27:05.766,1.047091209016674,0
675,675,-0.82,0.48,0.47,2024-03-22 15:27:05.770,1.0600471687618434,0
676,676,-0.81,0.39,0.54,2024-03-22 15:27:05.821,1.048713497576912,0
677,677,-1.25,-0.18,0.33,2024-03-22 15:27:05.825,1.3052969010918551,0
678,678,-1.18,0.52,-0.06,2024-03-22 15:27:05.828,1.290891165048394,0
679,679,-1.22,0.39,-0.29,2024-03-22 15:27:05.947,1.3132402674301455,0
680,680,-1.35,0.05,-0.84,2024-03-22 15:27:05.949,1.590785969261736,0
681,681,-1.28,0.29,-0.96,2024-03-22 15:27:05.951,1.6260688792299052,0
682,682,-1.22,0.16,-0.06,2024-03-22 15:27:05.954,1.2319090875547596,0
683,683,-0.94,0.65,0.62,2024-03-22 15:27:05.994,1.3001922934704695,0
684,684,-0.97,0.2,-0.0,2024-03-22 15:27:05.997,0.9904039579888602,0
685,685,-0.9,-0.04,-0.03,2024-03-22 15:27:06.001,0.9013878188659974,0
686,686,-0.82,-0.12,0.08,2024-03-22 15:27:06.078,0.8325863318599458,0
687,687,-0.66,-0.03,0.2,2024-03-22 15:27:06.079,0.6902897942168926,0
688,688,-0.63,0.02,0.21,2024-03-22 15:27:06.080,0.6643794096749236,0
689,689,-0.64,0.06,0.25,2024-03-22 15:27:06.082,0.6897100840208152,0
690,690,-0.8,0.36,0.38,2024-03-22 15:27:06.123,0.9560334722173696,0
691,691,-0.98,0.46,0.43,2024-03-22 15:27:06.126,1.1648605066702191,0
692,692,-1.11,0.51,0.46,2024-03-22 15:27:06.127,1.3052969010918551,0
693,693,-1.11,0.53,0.51,2024-03-22 15:27:06.179,1.331578011233289,0
694,694,-1.05,0.49,0.51,2024-03-22 15:27:06.181,1.265977882903173,0
695,695,-0.98,0.45,0.52,2024-03-22 15:27:06.184,1.197205078505767,0
696,696,-0.89,0.31,0.49,2024-03-22 15:27:06.219,1.0622146675696018,0
697,697,-0.8,0.28,0.47,2024-03-22 15:27:06.222,0.9691749068150702,0
698,698,-0.73,0.29,0.45,2024-03-22 15:27:06.224,0.9052623929005336,0
699,699,-0.67,0.33,0.46,2024-03-22 15:27:06.265,0.8771544903835357,0
700,700,-0.66,0.31,0.48,2024-03-22 15:27:06.267,0.8729833904490967,0
701,701,-0.63,0.34,0.47,2024-03-22 15:27:06.309,0.8563877626402657,0
702,702,-0.63,0.4,0.51,2024-03-22 15:27:06.311,0.9038805230781334,0
703,703,-0.64,0.44,0.45,2024-03-22 15:27:06.314,0.8976079322287654,0
704,704,-0.78,0.33,0.28,2024-03-22 15:27:06.398,0.8920201791439475,0
705,705,-0.77,0.34,0.29,2024-03-22 15:27:06.400,0.8902808545621994,0
706,706,-0.76,0.4,0.25,2024-03-22 15:27:06.403,0.8944830909525344,0
707,707,-0.63,0.38,0.11,2024-03-22 15:27:06.444,0.7439085965358916,0
708,708,-0.87,0.32,-0.07,2024-03-22 15:27:06.446,0.929623579735368,0
709,709,-0.85,0.29,-0.19,2024-03-22 15:27:06.449,0.9179869280115048,0
710,710,-1.0,0.29,-0.27,2024-03-22 15:27:06.452,1.0756393447619883,0
711,711,-1.01,0.21,-0.31,2024-03-22 15:27:06.489,1.077172223927075,0
712,712,-1.12,0.2,-0.45,2024-03-22 15:27:06.492,1.223478647136925,0
713,713,-1.06,0.13,-0.54,2024-03-22 15:27:06.495,1.196703806294607,0
714,714,-1.15,0.13,-0.76,2024-03-22 15:27:06.537,1.3845576911057191,0
715,715,-1.2,0.05,-0.68,2024-03-22 15:27:06.541,1.3801811475310044,0
716,716,-1.23,0.07,-0.57,2024-03-22 15:27:06.544,1.357460864997588,0
717,717,-1.26,0.02,-0.39,2024-03-22 15:27:06.576,1.3191285001848758,0
718,718,-1.17,0.01,-0.27,2024-03-22 15:27:06.579,1.2007914056987583,0
719,719,-1.3,0.14,-0.17,2024-03-22 15:27:06.619,1.3185218997043622,0
720,720,-1.15,0.11,0.04,2024-03-22 15:27:06.622,1.1559411749738824,0
721,721,-1.12,0.29,0.14,2024-03-22 15:27:06.625,1.1653754759733022,0
722,722,-1.22,0.41,0.27,2024-03-22 15:27:06.676,1.315066538240556,0
723,723,-0.9,0.78,0.37,2024-03-22 15:27:06.678,1.2471166745737947,0
724,724,-1.25,0.28,0.4,2024-03-22 15:27:06.680,1.3419761547807023,0
725,725,-1.02,0.41,0.5,2024-03-22 15:27:06.711,1.2076837334335508,0
726,726,-0.55,0.33,0.37,2024-03-22 15:27:06.755,0.740472821918536,0
727,727,-0.67,0.17,0.34,2024-03-22 15:27:06.758,0.7703246069028303,0
728,728,-0.68,0.03,0.4,2024-03-22 15:27:06.760,0.7894935085230278,0
729,729,-0.6,0.1,0.39,2024-03-22 15:27:06.763,0.722564875980005,0
730,730,-0.85,0.32,0.45,2024-03-22 15:27:06.848,1.0136074190730848,0
731,731,-1.04,0.41,0.53,2024-03-22 15:27:06.889,1.2371741995369934,0
732,732,-1.14,0.45,0.59,2024-03-22 15:27:06.890,1.3602205703487946,0
733,733,-1.18,0.49,0.58,2024-03-22 15:27:06.892,1.4031749712705113,0
734,734,-1.05,0.25,0.51,2024-03-22 15:27:06.894,1.1937755232873557,0
735,735,-0.91,0.07,0.45,2024-03-22 15:27:06.939,1.0175952043912158,0
736,736,-0.84,0.04,0.39,2024-03-22 15:27:06.942,0.9269843580125826,0
737,737,-0.79,0.07,0.41,2024-03-22 15:27:06.945,0.8928045698807775,0
738,738,-0.77,0.12,0.33,2024-03-22 15:27:06.990,0.8462860036654275,0
739,739,-0.79,0.24,0.46,2024-03-22 15:27:06.991,0.9451454914456292,0
740,740,-0.8,0.24,0.45,2024-03-22 15:27:07.029,0.9487360012142472,0
741,741,-0.73,0.29,0.46,2024-03-22 15:27:07.033,0.910274683818022,0
742,742,-0.71,0.35,0.51,2024-03-22 15:27:07.035,0.9416474924301556,0
743,743,-0.68,0.36,0.53,2024-03-22 15:27:07.074,0.9342911751697112,0
744,744,-0.63,0.34,0.51,2024-03-22 15:27:07.077,0.8789766777338294,0
745,745,-0.58,0.33,0.48,2024-03-22 15:27:07.079,0.8220097323024831,0
746,746,-0.57,0.32,0.46,2024-03-22 15:27:07.120,0.7993122043357026,0
747,747,-0.59,0.32,0.44,2024-03-22 15:27:07.122,0.8025584090893322,0
748,748,-0.62,0.34,0.44,2024-03-22 15:27:07.124,0.8328265125462806,0
749,749,-0.68,0.36,0.43,2024-03-22 15:27:07.166,0.8814193099768124,0
750,750,-0.72,0.37,0.43,2024-03-22 15:27:07.168,0.916624241442479,0
751,751,-1.54,-0.24,0.5,2024-03-22 15:27:07.171,1.6368261972488098,0
752,752,-1.01,0.43,-0.13,2024-03-22 15:27:07.211,1.1053958566956907,0
753,753,-1.44,0.05,-0.07,2024-03-22 15:27:07.213,1.4425671561490647,0
754,754,-1.58,0.25,-0.65,2024-03-22 15:27:07.215,1.7266731016611108,0
755,755,-1.95,-0.08,-0.68,2024-03-22 15:27:07.256,2.066712365086153,0
756,756,-1.35,0.08,-1.03,2024-03-22 15:27:07.257,1.6999411754528448,0
757,757,-1.27,0.13,-0.67,2024-03-22 15:27:07.260,1.441769745833224,0
758,758,-1.13,0.42,-0.16,2024-03-22 15:27:07.304,1.2161003248087716,0
759,759,-1.17,0.6,0.37,2024-03-22 15:27:07.306,1.365942897781602,0
760,760,-1.42,0.63,0.72,2024-03-22 15:27:07.309,1.712220780156578,0
761,761,-1.31,0.7,0.79,2024-03-22 15:27:07.346,1.682319826905693,0
762,762,-1.22,0.65,0.66,2024-03-22 15:27:07.349,1.5318289721767244,0
763,763,-1.1,0.33,0.54,2024-03-22 15:27:07.352,1.2690547663517129,0
764,764,-0.97,0.09,0.49,2024-03-22 15:27:07.390,1.0904586191139944,0
765,765,-0.81,-0.03,0.43,2024-03-22 15:27:07.392,0.917551088495894,0
766,766,-0.79,-0.11,0.41,2024-03-22 15:27:07.394,0.896827742657418,0
767,767,-0.79,-0.13,0.38,2024-03-22 15:27:07.431,0.886227961644181,0
768,768,-0.78,-0.14,0.35,2024-03-22 15:27:07.434,0.8663140308225418,0
769,769,-0.73,-0.09,0.32,2024-03-22 15:27:07.436,0.802122185206219,0
770,770,-0.68,0.01,0.31,2024-03-22 15:27:07.480,0.7473954776421918,0
771,771,-0.72,0.1,0.32,2024-03-22 15:27:07.482,0.7942291860665912,0
772,772,-0.79,0.25,0.37,2024-03-22 15:27:07.484,0.9074690077352504,0
773,773,-0.93,0.37,0.43,2024-03-22 15:27:07.524,1.0893576088686396,0
774,774,-0.98,0.45,0.45,2024-03-22 15:27:07.527,1.168503316212667,0
775,775,-1.04,0.46,0.54,2024-03-22 15:27:07.530,1.258888398548497,0
776,776,-1.08,0.5,0.51,2024-03-22 15:27:07.564,1.2947972814305722,0
777,777,-1.08,0.43,0.63,2024-03-22 15:27:07.565,1.322195144447294,0
778,778,-0.94,0.43,0.61,2024-03-22 15:27:07.567,1.200249973963757,0
779,779,-0.76,0.37,0.61,2024-03-22 15:27:07.606,1.042401074443038,0
780,780,-0.63,0.3,0.57,2024-03-22 15:27:07.607,0.9009994450608724,0
781,781,-0.56,0.27,0.54,2024-03-22 15:27:07.609,0.8234682750416072,0
782,782,-0.52,0.27,0.52,2024-03-22 15:27:07.662,0.7833900688673556,0
783,783,-0.51,0.3,0.51,2024-03-22 15:27:07.665,0.7811529939774922,0
784,784,-0.54,0.28,0.44,2024-03-22 15:27:07.668,0.7507329751649384,0
785,785,-0.61,0.19,0.37,2024-03-22 15:27:07.701,0.7383088784512889,0
786,786,-0.71,0.2,0.37,2024-03-22 15:27:07.704,0.8252272414311104,0
787,787,-0.78,0.11,0.29,2024-03-22 15:27:07.707,0.8394045508573325,0
788,788,-0.85,0.22,0.3,2024-03-22 15:27:07.797,0.9278469701410896,0
789,789,-0.85,0.15,0.27,2024-03-22 15:27:07.799,0.9043782394551518,0
790,790,-1.1,0.22,0.27,2024-03-22 15:27:07.801,1.153819743287486,0
791,791,-1.33,0.21,0.0,2024-03-22 15:27:07.804,1.3464768843169943,0
792,792,-1.15,0.03,-0.07,2024-03-22 15:27:07.843,1.1525189803209317,0
793,793,-0.97,0.06,0.07,2024-03-22 15:27:07.846,0.9743715923609432,0
794,794,-0.86,0.31,0.12,2024-03-22 15:27:07.849,0.9220086767487602,0
795,795,-0.89,0.15,-0.01,2024-03-22 15:27:07.883,0.9026073343375844,0
796,796,-0.91,0.14,0.14,2024-03-22 15:27:07.886,0.9312894286955048,0
797,797,-0.73,0.38,0.34,2024-03-22 15:27:07.889,0.8904493247793498,0
798,798,-0.75,0.31,0.27,2024-03-22 15:27:07.929,0.8552777326693358,0
799,799,-0.8,0.31,0.38,2024-03-22 15:27:07.931,0.9383496150156402,0
800,800,-0.86,0.28,0.41,2024-03-22 15:27:07.934,0.9930256794262674,0
801,801,-0.85,0.28,0.45,2024-03-22 15:27:07.975,1.0016985574512924,0
802,802,-0.89,0.24,0.47,2024-03-22 15:27:07.976,1.0346980235798269,0
803,803,-0.92,0.18,0.43,2024-03-22 15:27:07.979,1.0313583276436953,0
804,804,-1.01,0.08,0.35,2024-03-22 15:27:07.982,1.0719141756689292,0
805,805,-1.1,-0.17,0.28,2024-03-22 15:27:08.020,1.1477369036499612,0
806,806,-0.98,0.03,0.38,2024-03-22 15:27:08.022,1.05152270541344,0
807,807,-0.99,0.12,0.36,2024-03-22 15:27:08.025,1.0602358228243374,0
808,808,-1.03,0.08,0.46,2024-03-22 15:27:08.062,1.130884609498246,0
809,809,-0.98,0.07,0.51,2024-03-22 15:27:08.066,1.1069778678907722,0
810,810,-0.93,0.13,0.58,2024-03-22 15:27:08.116,1.1037209792334293,0
811,811,-0.89,0.14,0.62,2024-03-22 15:27:08.118,1.093663568013491,0
812,812,-0.89,0.16,0.64,2024-03-22 15:27:08.121,1.107835727894709,0
813,813,-0.84,0.2,0.73,2024-03-22 15:27:08.154,1.1307077429645558,0
814,814,-0.79,0.21,0.67,2024-03-22 15:27:08.156,1.0569295151522642,0
815,815,-0.76,0.19,0.65,2024-03-22 15:27:08.159,1.0179390944452424,0
816,816,-0.75,0.2,0.62,2024-03-22 15:27:08.196,0.9934284070832684,0
817,817,-0.73,0.21,0.57,2024-03-22 15:27:08.199,0.9496841580230766,0
818,818,-0.75,0.19,0.54,2024-03-22 15:27:08.202,0.9435041070392858,0
819,819,-0.79,0.22,0.53,2024-03-22 15:27:08.247,0.9764220398987316,0
820,820,-0.81,0.2,0.53,2024-03-22 15:27:08.250,0.9884331034521256,0
821,821,-0.86,0.17,0.49,2024-03-22 15:27:08.253,1.004290794541103,0
822,822,-0.9,0.16,0.48,2024-03-22 15:27:08.289,1.0324727599312244,0
823,823,-0.91,0.13,0.46,2024-03-22 15:27:08.292,1.0279105019407089,0
824,824,-0.93,0.12,0.46,2024-03-22 15:27:08.295,1.0444615837837214,0
825,825,-0.93,0.11,0.45,2024-03-22 15:27:08.330,1.038989894079822,0
826,826,-0.93,0.12,0.46,2024-03-22 15:27:08.333,1.0444615837837214,0
827,827,-0.91,0.11,0.46,2024-03-22 15:27:08.335,1.0255730105653131,0
828,828,-0.89,0.14,0.45,2024-03-22 15:27:08.374,1.007074972382891,0
829,829,-0.89,0.13,0.45,2024-03-22 15:27:08.377,1.0057335631269348,0
830,830,-0.87,0.18,0.45,2024-03-22 15:27:08.379,0.99589156036187,0
831,831,-0.87,0.19,0.46,2024-03-22 15:27:08.423,1.002297361066066,0
832,832,-0.87,0.2,0.47,2024-03-22 15:27:08.426,1.0088607436113273,0
833,833,-0.87,0.19,0.48,2024-03-22 15:27:08.429,1.0116323442832382,0
834,834,-0.88,0.22,0.5,2024-03-22 15:27:08.470,1.035760590097924,0
835,835,-0.87,0.24,0.51,2024-03-22 15:27:08.472,1.0366291525902598,0
836,836,-0.87,0.26,0.51,2024-03-22 15:27:08.474,1.0414413089560064,0
837,837,-0.86,0.26,0.5,2024-03-22 15:27:08.513,1.0282023147221562,0
838,838,-0.86,0.27,0.49,2024-03-22 15:27:08.516,1.0259629622944486,0
839,839,-0.85,0.23,0.44,2024-03-22 15:27:08.519,0.984377976185977,0
840,840,-0.89,0.24,0.46,2024-03-22 15:27:08.557,1.030194156457898,0
841,841,-0.88,0.18,0.42,2024-03-22 15:27:08.559,0.9915644204992432,0
842,842,-0.93,0.2,0.42,2024-03-22 15:27:08.561,1.039855759228173,0
843,843,-0.9,0.17,0.41,2024-03-22 15:27:08.602,1.0034938963441682,0
844,844,-0.91,0.16,0.4,2024-03-22 15:27:08.605,1.0068266980965492,0
845,845,-0.92,0.14,0.4,2024-03-22 15:27:08.608,1.012916580968048,0
846,846,-0.92,0.14,0.4,2024-03-22 15:27:08.646,1.012916580968048,0
847,847,-0.91,0.14,0.41,2024-03-22 15:27:08.648,1.007869039111729,0
848,848,-0.91,0.14,0.41,2024-03-22 15:27:08.651,1.007869039111729,0
849,849,-0.92,0.18,0.43,2024-03-22 15:27:08.654,1.0313583276436953,0
850,850,-0.91,0.15,0.44,2024-03-22 15:27:08.692,1.0218610473053564,0
851,851,-0.9,0.16,0.45,2024-03-22 15:27:08.695,1.0188719252192593,0
852,852,-0.9,0.2,0.49,2024-03-22 15:27:08.739,1.0440785411069418,0
853,853,-0.91,0.1,0.43,2024-03-22 15:27:08.741,1.0114346246792227,0
854,854,-0.9,0.21,0.49,2024-03-22 15:27:08.744,1.0460401521930218,0
855,855,-0.88,0.2,0.48,2024-03-22 15:27:08.780,1.022154587134451,0
856,856,-0.86,0.19,0.48,2024-03-22 15:27:08.782,1.0030453628824572,0
857,857,-0.87,0.19,0.47,2024-03-22 15:27:08.785,1.0069260151570223,0
858,858,-0.87,0.19,0.46,2024-03-22 15:27:08.826,1.002297361066066,0
859,859,-0.84,0.2,0.38,2024-03-22 15:27:08.829,0.9433981132056604,0
860,860,-0.94,0.2,0.49,2024-03-22 15:27:08.831,1.0787492757819122,0
861,861,-0.88,0.19,0.46,2024-03-22 15:27:08.873,1.0109896141899777,0
862,862,-0.89,0.22,0.42,2024-03-22 15:27:08.876,1.0084145972763383,0
863,863,-0.98,0.18,0.51,2024-03-22 15:27:08.879,1.1193301568348812,0
864,864,-0.88,0.21,0.41,2024-03-22 15:27:08.923,0.9932774033471212,0
865,865,-0.89,0.19,0.41,2024-03-22 15:27:08.926,0.9981482855768476,0
866,866,-0.89,0.23,0.4,2024-03-22 15:27:08.940,1.002496882788171,0
867,867,-0.88,0.26,0.38,2024-03-22 15:27:08.962,0.9931767214348108,0
868,868,-1.08,0.24,0.53,2024-03-22 15:27:08.964,1.2267436570041843,0
869,869,-0.91,0.25,0.39,2024-03-22 15:27:08.967,1.02112682855755,0
870,870,-0.97,0.25,0.43,2024-03-22 15:27:09.008,1.0900917392586738,0
871,871,-0.96,0.25,0.33,2024-03-22 15:27:09.010,1.0454664030948102,0
872,872,-0.95,0.28,0.28,2024-03-22 15:27:09.014,1.0292230079045066,0
873,873,-0.95,0.26,0.29,2024-03-22 15:27:09.052,1.0267424214475604,0
874,874,-0.97,0.29,0.26,2024-03-22 15:27:09.055,1.045275083411061,0
875,875,-0.72,0.4,-0.04,2024-03-22 15:27:09.057,0.8246211251235321,0
876,876,-1.05,0.29,0.33,2024-03-22 15:27:09.094,1.1382003338604323,0
877,877,-1.04,0.24,0.27,2024-03-22 15:27:09.097,1.1009541316512692,0
878,878,-0.9,0.36,0.25,2024-03-22 15:27:09.099,1.001049449328054,0
879,879,-0.9,0.33,0.24,2024-03-22 15:27:09.146,0.9881801455200364,0
880,880,-0.91,0.3,0.27,2024-03-22 15:27:09.148,0.9954898291795852,0
881,881,-0.93,0.29,0.28,2024-03-22 15:27:09.150,1.0136074190730848,0
882,882,-0.86,0.27,0.29,2024-03-22 15:27:09.190,0.9468896451012652,0
883,883,-0.85,0.23,0.3,2024-03-22 15:27:09.191,0.9302687783646184,0
884,884,-0.9,0.17,0.31,2024-03-22 15:27:09.194,0.9669539802906858,0
885,885,-0.91,0.22,0.37,2024-03-22 15:27:09.233,1.0066777041337511,0
886,886,-0.84,0.27,0.39,2024-03-22 15:27:09.235,0.9646761114488116,0
887,887,-0.79,0.33,0.44,2024-03-22 15:27:09.238,0.9626006440887104,0
888,888,-0.73,0.44,0.47,2024-03-22 15:27:09.280,0.973344748791506,0
889,889,-0.72,0.31,0.5,2024-03-22 15:27:09.283,0.9297849213662264,0
890,890,-0.77,0.22,0.46,2024-03-22 15:27:09.286,0.9235258523723092,0
891,891,-0.92,0.1,0.38,2024-03-22 15:27:09.328,1.000399920031984,0
892,892,-0.87,0.33,0.4,2024-03-22 15:27:09.332,1.0128178513434685,0
893,893,-0.94,0.13,0.37,2024-03-22 15:27:09.335,1.0185283501208986,0
894,894,-0.98,0.06,0.33,2024-03-22 15:27:09.371,1.0358088626768938,0
895,895,-1.02,0.15,0.26,2024-03-22 15:27:09.382,1.063249735480804,0
896,896,-0.95,0.17,0.33,2024-03-22 15:27:09.383,1.0199509792141974,0
897,897,-1.02,0.1,0.32,2024-03-22 15:27:09.405,1.0736852425175638,0
898,898,-1.13,0.07,0.34,2024-03-22 15:27:09.407,1.18211674550359,0
899,899,-0.94,0.16,0.34,2024-03-22 15:27:09.408,1.012324058787501,0
900,900,-1.08,0.13,0.35,2024-03-22 15:27:09.454,1.1427160627207442,0
901,901,-0.97,0.16,0.34,2024-03-22 15:27:09.456,1.0402403568406675,0
902,902,-0.92,0.2,0.36,2024-03-22 15:27:09.459,1.0079682534683323,0
903,903,-0.97,0.19,0.37,2024-03-22 15:27:09.496,1.0554146104730595,0
904,904,-0.83,0.24,0.37,2024-03-22 15:27:09.497,0.9398936110007344,0
905,905,-0.97,-0.03,0.25,2024-03-22 15:27:09.499,1.0021476937058729,0
906,906,-1.11,0.24,0.27,2024-03-22 15:27:09.541,1.1673045875006234,0
907,907,-1.07,0.08,0.23,2024-03-22 15:27:09.542,1.097360469490313,0
908,908,-0.94,0.17,0.22,2024-03-22 15:27:09.543,0.9802550688468792,0
909,909,-0.99,0.16,0.23,2024-03-22 15:27:09.588,1.0288828893513586,0
910,910,-1.04,0.14,0.26,2024-03-22 15:27:09.589,1.0811105401391663,0
911,911,-0.99,0.13,0.24,2024-03-22 15:27:09.590,1.0269371937952194,0
912,912,-1.02,0.05,0.2,2024-03-22 15:27:09.644,1.0406248123122954,0
913,913,-1.01,0.08,0.15,2024-03-22 15:27:09.649,1.0242070103255494,0
914,914,-1.02,0.12,0.12,2024-03-22 15:27:09.652,1.034021276376845,0
915,915,-1.11,0.2,0.12,2024-03-22 15:27:09.685,1.1342398335449166,0
916,916,-1.01,0.16,-0.01,2024-03-22 15:27:09.691,1.0226436329435586,0
917,917,-1.08,0.19,-0.04,2024-03-22 15:27:09.694,1.0973149046650192,0
918,918,-1.05,0.19,-0.05,2024-03-22 15:27:09.730,1.0682228231974826,0
919,919,-1.05,0.18,-0.08,2024-03-22 15:27:09.733,1.0683164325236227,0
920,920,-1.06,0.15,-0.41,2024-03-22 15:27:09.736,1.1463856244737196,0
921,921,-0.89,0.2,-0.17,2024-03-22 15:27:09.770,0.9279008567729636,0
922,922,-0.85,0.26,-0.12,2024-03-22 15:27:09.772,0.8969392398596462,0
923,923,-0.82,0.25,-0.07,2024-03-22 15:27:09.774,0.860116271209887,0
924,924,-0.85,0.16,-0.04,2024-03-22 15:27:09.820,0.8658521813797087,0
925,925,-0.8,0.26,0.04,2024-03-22 15:27:09.823,0.842140130857092,0
926,926,-0.85,0.28,0.0,2024-03-22 15:27:09.826,0.8949301648732151,0
927,927,-0.91,0.24,0.0,2024-03-22 15:27:09.872,0.9411163583744574,0
928,928,-0.94,0.2,0.03,2024-03-22 15:27:09.874,0.9615092303249096,0
929,929,-0.94,0.15,0.1,2024-03-22 15:27:09.877,0.957131129992124,0
930,930,-1.12,0.12,0.14,2024-03-22 15:27:09.903,1.135077089893017,0
931,931,-0.98,0.22,0.18,2024-03-22 15:27:09.906,1.0203920815059278,0
932,932,-1.0,0.32,0.16,2024-03-22 15:27:09.908,1.0620734437881405,0
933,933,-1.17,0.34,0.13,2024-03-22 15:27:09.957,1.225316285699329,0
934,934,-1.29,0.37,0.14,2024-03-22 15:27:09.960,1.34929611279363,0
935,935,-1.24,0.4,0.3,2024-03-22 15:27:09.962,1.3370115930686617,0
936,936,-1.16,0.48,0.33,2024-03-22 15:27:10.004,1.2980369794424194,0
937,937,-1.08,0.57,0.21,2024-03-22 15:27:10.007,1.239112585683803,0
938,938,-1.13,0.49,-0.02,2024-03-22 15:27:10.009,1.2318279100588685,0
939,939,-1.04,0.4,0.16,2024-03-22 15:27:10.046,1.1256997823576231,0
940,940,-0.98,0.38,0.18,2024-03-22 15:27:10.049,1.0663957989414623,0
941,941,-0.96,0.3,0.17,2024-03-22 15:27:10.052,1.0200490184299968,0
942,942,-1.05,0.08,0.1,2024-03-22 15:27:10.092,1.0577806956075535,0
943,943,-1.24,-0.08,0.19,2024-03-22 15:27:10.094,1.2570202862324855,0
944,944,-1.01,0.12,0.29,2024-03-22 15:27:10.097,1.057638879769461,0
945,945,-0.82,0.26,0.22,2024-03-22 15:27:10.137,0.8879189152169245,0
946,946,-0.8,0.27,0.25,2024-03-22 15:27:10.139,0.8805679985100526,0
947,947,-0.86,0.26,0.23,2024-03-22 15:27:10.142,0.9274157643689264,0
948,948,-0.86,0.29,0.21,2024-03-22 15:27:10.184,0.9315578350268972,0
949,949,-0.83,0.26,0.23,2024-03-22 15:27:10.187,0.8996666049153986,0
950,950,-0.8,0.28,0.2,2024-03-22 15:27:10.223,0.8708616422830897,0
951,951,-0.74,0.29,0.21,2024-03-22 15:27:10.227,0.8220705565825843,0
952,952,-0.74,0.31,0.25,2024-03-22 15:27:10.229,0.8403570669661795,0
953,953,-0.77,0.32,0.27,2024-03-22 15:27:10.232,0.8764701934464172,0
954,954,-0.8,0.37,0.3,2024-03-22 15:27:10.267,0.931074647920348,0
955,955,-0.83,0.41,0.34,2024-03-22 15:27:10.271,0.9862048468751308,0
956,956,-0.83,0.49,0.33,2024-03-22 15:27:10.275,1.0187737727287645,0
957,957,-0.87,0.47,0.39,2024-03-22 15:27:10.305,1.062967544189379,0
958,958,-0.81,0.53,0.39,2024-03-22 15:27:10.307,1.0435995400535591,0
959,959,-0.77,0.5,0.37,2024-03-22 15:27:10.310,0.9898484732523458,0
960,960,-0.75,0.49,0.36,2024-03-22 15:27:10.355,0.9655050491841044,0
961,961,-0.74,0.48,0.35,2024-03-22 15:27:10.358,0.9489467845985884,0
962,962,-0.74,0.47,0.34,2024-03-22 15:27:10.360,0.9402659198333204,0
963,963,-0.76,0.46,0.32,2024-03-22 15:27:10.402,0.9442457307290302,0
964,964,-0.81,0.48,0.28,2024-03-22 15:27:10.406,0.9822932352408826,0
965,965,-0.83,0.52,0.26,2024-03-22 15:27:10.408,1.0133607452432722,0
966,966,-0.83,0.52,0.25,2024-03-22 15:27:10.445,1.0108412338245805,0
967,967,-0.86,0.51,0.24,2024-03-22 15:27:10.447,1.0282509421342632,0
968,968,-0.89,0.5,0.25,2024-03-22 15:27:10.449,1.0509995242624994,0
969,969,-0.94,0.54,0.29,2024-03-22 15:27:10.493,1.1221853679316978,0
970,970,-1.02,0.58,0.33,2024-03-22 15:27:10.496,1.2188929403356146,0
971,971,-1.12,0.66,0.37,2024-03-22 15:27:10.499,1.3516286472252652,0
972,972,-1.36,0.71,0.37,2024-03-22 15:27:10.532,1.578163489629639,0
973,973,-1.55,0.64,0.29,2024-03-22 15:27:10.533,1.70182255244194,0
974,974,-1.61,0.6,0.26,2024-03-22 15:27:10.535,1.7377284022539312,0
975,975,-1.49,0.56,0.21,2024-03-22 15:27:10.537,1.6055528642807124,0
976,976,-1.1,0.49,0.03,2024-03-22 15:27:10.586,1.2045746137122433,0
977,977,-1.04,0.4,0.16,2024-03-22 15:27:10.590,1.1256997823576231,0
978,978,-0.85,0.25,0.3,2024-03-22 15:27:10.593,0.9354143466934852,0
979,979,-0.65,0.12,0.29,2024-03-22 15:27:10.628,0.7218032973047436,0
980,980,-0.62,-0.09,0.1,2024-03-22 15:27:10.632,0.6344288770224761,0
981,981,-0.74,-0.02,-0.02,2024-03-22 15:27:10.634,0.7405403432629446,0
982,982,-0.73,-0.07,0.08,2024-03-22 15:27:10.673,0.7376991256603195,0
983,983,-0.7,-0.04,0.24,2024-03-22 15:27:10.676,0.7410802925459561,0
984,984,-0.65,0.04,0.33,2024-03-22 15:27:10.680,0.7300684899377592,0
985,985,-0.77,0.17,0.39,2024-03-22 15:27:10.720,0.8797158632194829,0
986,986,-0.62,0.07,0.43,2024-03-22 15:27:10.722,0.7577598564189053,0
987,987,-1.1,0.54,0.57,2024-03-22 15:27:10.730,1.351480669488099,0
988,988,-1.22,0.6,0.58,2024-03-22 15:27:10.763,1.47810689735215,0
989,989,-1.29,0.64,0.59,2024-03-22 15:27:10.764,1.5562133529821676,0
990,990,-1.13,0.58,0.58,2024-03-22 15:27:10.766,1.3963165830140385,0
991,991,-0.95,0.49,0.56,2024-03-22 15:27:10.808,1.206731121667126,0
992,992,-0.81,0.4,0.5,2024-03-22 15:27:10.812,1.0325211862233143,0
993,993,-0.7,0.38,0.36,2024-03-22 15:27:10.815,0.8740709353364863,0
994,994,-0.6,0.36,0.27,2024-03-22 15:27:10.852,0.75,0
995,995,-0.51,0.29,0.27,2024-03-22 15:27:10.855,0.645832795698701,0
996,996,-0.5,0.27,0.34,2024-03-22 15:27:10.858,0.6621933252457322,0
997,997,-0.57,0.37,0.32,2024-03-22 15:27:10.898,0.7511324783285569,0
998,998,-0.43,0.39,0.29,2024-03-22 15:27:10.951,0.6489221833163049,0
999,999,-0.43,0.36,0.27,2024-03-22 15:27:10.953,0.6224146527838175,0
1000,1000,-0.43,0.37,0.32,2024-03-22 15:27:10.956,0.6513063795173513,0
1001,1001,-0.54,0.37,0.27,2024-03-22 15:27:10.958,0.7080960386840192,0
1002,1002,-0.47,0.39,0.08,2024-03-22 15:27:10.983,0.6159545437773798,0
1003,1003,-0.61,0.15,-0.06,2024-03-22 15:27:10.984,0.63103090257134,0
1004,1004,-0.85,0.08,-0.33,2024-03-22 15:27:10.985,0.9153141537199126,0
1005,1005,-1.39,-0.0,-0.62,2024-03-22 15:27:11.036,1.5220052562327109,0
1006,1006,-1.37,-0.24,-0.83,2024-03-22 15:27:11.038,1.6196913286178944,0
1007,1007,-1.45,-0.52,-0.72,2024-03-22 15:27:11.072,1.7003823099526765,0
1008,1008,-1.67,-0.31,-0.65,2024-03-22 15:27:11.073,1.818653347947321,0
1009,1009,-1.4,0.01,-0.15,2024-03-22 15:27:11.075,1.4080482946262889,0
1010,1010,-1.21,0.04,0.03,2024-03-22 15:27:11.076,1.2110326172320875,0
1011,1011,-1.08,0.2,0.22,2024-03-22 15:27:11.115,1.1201785571952358,0
1012,1012,-1.11,0.15,0.39,2024-03-22 15:27:11.116,1.1860438440462475,0
1013,1013,-1.1,0.34,0.43,2024-03-22 15:27:11.118,1.2290240030202828,0
1014,1014,-1.03,0.55,0.56,2024-03-22 15:27:11.171,1.2949903474543738,0
1015,1015,-1.0,0.49,0.63,2024-03-22 15:27:11.174,1.2794530081249564,0
1016,1016,-0.87,0.64,0.77,2024-03-22 15:27:11.175,1.3264237633576983,0
1017,1017,-0.73,0.64,0.69,2024-03-22 15:27:11.210,1.1910499569707391,0
1018,1018,-0.46,0.58,0.74,2024-03-22 15:27:11.213,1.046709128650362,0
1019,1019,-0.87,0.21,0.55,2024-03-22 15:27:11.215,1.0504760825454331,0
1020,1020,-0.95,0.49,0.46,2024-03-22 15:27:11.262,1.163700992523423,0
1021,1021,-0.79,0.47,0.34,2024-03-22 15:27:11.264,0.9801020355044672,0
1022,1022,-0.99,0.42,0.29,2024-03-22 15:27:11.267,1.113822247937255,0
1023,1023,-0.99,0.44,0.34,2024-03-22 15:27:11.308,1.1354734695271396,0
1024,1024,-1.05,0.45,0.41,2024-03-22 15:27:11.311,1.2137133104650373,0
1025,1025,-1.11,0.43,0.47,2024-03-22 15:27:11.313,1.2798046725965646,0
1026,1026,-1.14,0.35,0.5,2024-03-22 15:27:11.343,1.293097057455472,0
1027,1027,-1.1,0.27,0.52,2024-03-22 15:27:11.346,1.24631456703354,0
1028,1028,-1.03,0.2,0.52,2024-03-22 15:27:11.348,1.1710251918724892,0
1029,1029,-0.96,0.16,0.52,2024-03-22 15:27:11.392,1.1034491379306977,0
1030,1030,-0.91,0.14,0.5,2024-03-22 15:27:11.395,1.0477117924314874,0
1031,1031,-0.86,0.16,0.46,2024-03-22 15:27:11.397,0.9883319280484668,0
1032,1032,-0.82,0.19,0.42,2024-03-22 15:27:11.437,0.9406912352095134,0
1033,1033,-0.78,0.25,0.4,2024-03-22 15:27:11.442,0.9115371632577576,0
1034,1034,-0.75,0.29,0.39,2024-03-22 15:27:11.444,0.8937001734362593,0
1035,1035,-0.73,0.33,0.39,2024-03-22 15:27:11.486,0.891010662113535,0
1036,1036,-0.69,0.37,0.38,2024-03-22 15:27:11.488,0.8702873088813831,0
1037,1037,-0.67,0.41,0.4,2024-03-22 15:27:11.491,0.8814760348415606,0
1038,1038,-0.64,0.44,0.39,2024-03-22 15:27:11.530,0.8690799733051038,0
1039,1039,-0.58,0.48,0.41,2024-03-22 15:27:11.533,0.8572630868059116,0
1040,1040,-0.59,0.47,0.41,2024-03-22 15:27:11.537,0.858545281275251,0
1041,1041,-0.58,0.49,0.41,2024-03-22 15:27:11.572,0.862902080192185,0
1042,1042,-0.54,0.52,0.44,2024-03-22 15:27:11.575,0.8692525524840292,0
1043,1043,-0.54,0.54,0.44,2024-03-22 15:27:11.578,0.8813625814612281,0
1044,1044,-0.59,0.56,0.45,2024-03-22 15:27:11.622,0.929623579735368,0
1045,1045,-0.62,0.6,0.43,2024-03-22 15:27:11.625,0.964002074686564,0
1046,1046,-0.66,0.61,0.4,2024-03-22 15:27:11.627,0.983717439105356,0
1047,1047,-0.84,0.55,0.33,2024-03-22 15:27:11.658,1.056882207249228,0
1048,1048,-0.88,0.67,0.29,2024-03-22 15:27:11.661,1.1434159348198714,0
1049,1049,-1.03,0.69,0.26,2024-03-22 15:27:11.712,1.2667280686871984,0
1050,1050,-1.07,0.71,0.23,2024-03-22 15:27:11.716,1.304568894309534,0
1051,1051,-1.05,0.71,0.29,2024-03-22 15:27:11.719,1.3002692028960772,0
1052,1052,-1.07,0.69,0.3,2024-03-22 15:27:11.750,1.3080519867344722,0
1053,1053,-1.09,0.73,0.29,2024-03-22 15:27:11.751,1.3435400998853737,0
1054,1054,-1.15,0.76,0.33,2024-03-22 15:27:11.754,1.417391971192161,0
1055,1055,-1.23,0.75,0.38,2024-03-22 15:27:11.793,1.4898993254579318,0
1056,1056,-1.22,0.6,0.39,2024-03-22 15:27:11.795,1.4143903280212289,0
1057,1057,-1.15,0.37,0.41,2024-03-22 15:27:11.845,1.2757350822173072,0
1058,1058,-2.01,0.24,-0.55,2024-03-22 15:27:11.939,2.097665368928037,0
1059,1059,-1.37,-0.68,-0.1,2024-03-22 15:27:11.946,1.53274263984532,0
1060,1060,-1.15,-0.38,0.01,2024-03-22 15:27:11.947,1.211197754291181,0
1061,1061,-0.81,0.13,0.46,2024-03-22 15:27:11.949,0.9405317644821998,0
1062,1062,-0.69,0.32,0.64,2024-03-22 15:27:11.976,0.9940321926376428,0
1063,1063,-0.74,0.6,0.44,2024-03-22 15:27:11.981,1.0493807697875923,0
1064,1064,-0.7,0.56,0.38,2024-03-22 15:27:11.984,0.9736529155710468,0
1065,1065,-0.7,0.48,0.34,2024-03-22 15:27:12.027,0.9143303560529968,0
1066,1066,-0.69,0.43,0.34,2024-03-22 15:27:12.029,0.8812491134747313,0
1067,1067,-0.69,0.38,0.35,2024-03-22 15:27:12.031,0.8619744775803979,0
1068,1068,-0.69,0.35,0.36,2024-03-22 15:27:12.072,0.8533463540673271,0
1069,1069,-0.69,0.35,0.39,2024-03-22 15:27:12.104,0.8664294547163086,0
1070,1070,-0.7,0.34,0.42,2024-03-22 15:27:12.116,0.8843076387773657,0
1071,1071,-0.7,0.34,0.44,2024-03-22 15:27:12.117,0.8939798655450804,0
1072,1072,-0.7,0.34,0.44,2024-03-22 15:27:12.124,0.8939798655450804,0
1073,1073,-0.73,0.35,0.43,2024-03-22 15:27:12.151,0.9166787877986486,0
1074,1074,-0.74,0.35,0.42,2024-03-22 15:27:12.153,0.9200543462209176,0
1075,1075,-0.72,0.36,0.33,2024-03-22 15:27:12.156,0.87,0
1076,1076,-0.68,0.41,0.41,2024-03-22 15:27:12.202,0.8936442245099556,0
1077,1077,-0.68,0.37,0.27,2024-03-22 15:27:12.203,0.8198780397107853,0
1078,1078,-0.59,0.67,-0.08,2024-03-22 15:27:12.205,0.8963258336118624,0
1079,1079,-0.82,0.45,0.4,2024-03-22 15:27:12.242,1.0173003489628811,0
1080,1080,-0.92,0.54,0.23,2024-03-22 15:27:12.244,1.091283647820309,0
1081,1081,-1.07,0.6,0.39,2024-03-22 15:27:12.246,1.287245120402482,0
1082,1082,-1.0,0.56,0.46,2024-03-22 15:27:12.285,1.2349898785010345,0
1083,1083,-1.04,0.72,0.51,2024-03-22 15:27:12.287,1.3638548309845884,0
1084,1084,-0.95,0.87,0.48,2024-03-22 15:27:12.288,1.3746999672655849,0
1085,1085,-1.16,0.89,0.56,2024-03-22 15:27:12.377,1.5656627989449068,0
1086,1086,-1.27,0.85,0.56,2024-03-22 15:27:12.378,1.6275748830699004,0
1087,1087,-1.32,0.88,0.59,2024-03-22 15:27:12.380,1.6926015479137433,0
1088,1088,-1.28,0.85,0.4,2024-03-22 15:27:12.382,1.587734234687909,0
1089,1089,-0.67,0.87,-0.11,2024-03-22 15:27:12.431,1.1035850669522491,0
1090,1090,-0.21,0.41,0.35,2024-03-22 15:27:12.434,0.5785326265648291,0
1091,1091,-0.27,0.63,0.39,2024-03-22 15:27:12.436,0.788606365685695,0
1092,1092,-0.52,0.48,0.44,2024-03-22 15:27:12.473,0.8333066662399864,0
1093,1093,-0.71,0.51,0.49,2024-03-22 15:27:12.476,1.0021476937058729,0
1094,1094,-0.89,0.62,0.57,2024-03-22 15:27:12.516,1.2253162856993292,0
1095,1095,-0.96,0.65,0.51,2024-03-22 15:27:12.519,1.2665701717630966,0
1096,1096,-0.94,0.72,0.52,2024-03-22 15:27:12.522,1.2932130528261767,0
1097,1097,-1.01,0.67,0.55,2024-03-22 15:27:12.606,1.3309770847013107,0
1098,1098,-0.98,0.61,0.56,2024-03-22 15:27:12.611,1.2830042868205858,0
1099,1099,-0.92,0.45,0.51,2024-03-22 15:27:12.614,1.1441153787970864,0
1100,1100,-0.89,0.35,0.49,2024-03-22 15:27:12.651,1.074569681314339,0
1101,1101,-0.83,0.31,0.43,2024-03-22 15:27:12.654,0.9848350115628504,0
1102,1102,-0.83,0.34,0.43,2024-03-22 15:27:12.658,0.9946858800646564,0
1103,1103,-0.81,0.38,0.44,2024-03-22 15:27:12.660,0.9970456358662828,0
1104,1104,-0.79,0.5,0.43,2024-03-22 15:27:12.696,1.0290772565750348,0
1105,1105,-0.8,0.53,0.44,2024-03-22 15:27:12.700,1.0556988206870368,0
1106,1106,-0.8,0.59,0.45,2024-03-22 15:27:12.704,1.091146186356347,0
1107,1107,-0.77,0.66,0.46,2024-03-22 15:27:12.740,1.113597772986279,0
1108,1108,-0.72,0.7,0.47,2024-03-22 15:27:12.744,1.1087380213558116,0
1109,1109,-0.68,0.74,0.46,2024-03-22 15:27:12.748,1.105260150371848,0
1110,1110,-0.59,0.74,0.47,2024-03-22 15:27:12.785,1.0566929544574433,0
1111,1111,-0.54,0.73,0.48,2024-03-22 15:27:12.789,1.0270832488167645,0
1112,1112,-0.48,0.69,0.49,2024-03-22 15:27:12.793,0.9729337079164232,0
1113,1113,-0.44,0.67,0.51,2024-03-22 15:27:12.830,0.9500526301210896,0
1114,1114,-0.45,0.67,0.51,2024-03-22 15:27:12.834,0.954725091322104,0
1115,1115,-0.48,0.67,0.49,2024-03-22 15:27:12.839,0.9588534820294496,0
1116,1116,-0.5,0.66,0.47,2024-03-22 15:27:12.876,0.9521029356114812,0
1117,1117,-0.57,0.68,0.46,2024-03-22 15:27:12.881,0.9994498486667552,0
1118,1118,-0.68,0.73,0.46,2024-03-22 15:27:12.883,1.0985900054160334,0
1119,1119,-0.8,0.77,0.44,2024-03-22 15:27:12.925,1.194361754243663,0
1120,1120,-0.86,0.75,0.4,2024-03-22 15:27:12.929,1.2091732712891068,0
1121,1121,-0.87,0.72,0.36,2024-03-22 15:27:12.933,1.1852847759083047,0
1122,1122,-0.87,0.71,0.33,2024-03-22 15:27:12.968,1.1704272724095248,0
1123,1123,-0.89,0.72,0.29,2024-03-22 15:27:12.973,1.180931835458762,0
1124,1124,-0.95,0.7,0.23,2024-03-22 15:27:12.977,1.2022478945708326,0
1125,1125,-1.0,0.63,0.21,2024-03-22 15:27:13.014,1.20041659435381,0
1126,1126,-0.99,0.5,0.1,2024-03-22 15:27:13.018,1.113597772986279,0
1127,1127,-1.03,0.41,0.05,2024-03-22 15:27:13.022,1.1097296968181034,0
1128,1128,-1.08,0.28,-0.02,2024-03-22 15:27:13.058,1.1158852987650658,0
1129,1129,-1.14,0.25,0.0,2024-03-22 15:27:13.113,1.1670903992407786,0
1130,1130,-1.78,-0.41,-0.17,2024-03-22 15:27:13.117,1.834502657397912,0
1131,1131,-0.58,0.23,0.01,2024-03-22 15:27:13.121,0.6240192304729077,0
1132,1132,-0.88,0.56,-0.73,2024-03-22 15:27:13.147,1.2731457104353767,0
1133,1133,-1.2,-0.15,-0.27,2024-03-22 15:27:13.150,1.239112585683803,0
1134,1134,-1.28,0.19,-0.13,2024-03-22 15:27:13.202,1.3005383500689245,0
1135,1135,-0.86,0.39,-0.01,2024-03-22 15:27:13.205,0.9443516294262428,0
1136,1136,-0.8,0.42,0.21,2024-03-22 15:27:13.208,0.9276313923105448,0
1137,1137,-0.72,0.49,0.33,2024-03-22 15:27:13.234,0.931343116150004,0
1138,1138,-0.49,0.51,0.42,2024-03-22 15:27:13.237,0.8225569889071517,0
1139,1139,-0.63,0.43,0.43,2024-03-22 15:27:13.240,0.8756140702387096,0
1140,1140,-0.63,0.47,0.43,2024-03-22 15:27:13.243,0.8959352655186645,0
1141,1141,-0.59,0.52,0.37,2024-03-22 15:27:13.283,0.8691375035056306,0
1142,1142,-0.57,0.49,0.3,2024-03-22 15:27:13.286,0.8093207028119322,0
1143,1143,-0.55,0.44,0.31,2024-03-22 15:27:13.289,0.7695453203028396,0
1144,1144,-0.59,0.39,0.28,2024-03-22 15:27:13.330,0.7606576102294645,0
1145,1145,-0.6,0.35,0.29,2024-03-22 15:27:13.380,0.7527283706623525,0
1146,1146,-0.62,0.32,0.31,2024-03-22 15:27:13.383,0.7634788798650556,0
1147,1147,-0.65,0.31,0.33,2024-03-22 15:27:13.386,0.792148975887743,0
1148,1148,-0.75,0.26,0.21,2024-03-22 15:27:13.415,0.8210968274204937,0
1149,1149,-0.93,0.28,0.54,2024-03-22 15:27:13.419,1.1112605455067683,0
1150,1150,-0.89,0.27,0.33,2024-03-22 15:27:13.424,0.9868637190615532,0
1151,1151,-0.95,0.32,0.52,2024-03-22 15:27:13.463,1.129291813483123,0
1152,1152,-1.04,0.41,0.46,2024-03-22 15:27:13.466,1.2088424214925615,0
1153,1153,-0.99,0.61,0.75,2024-03-22 15:27:13.471,1.3837268516582308,0
1154,1154,-0.95,0.69,0.7,2024-03-22 15:27:13.500,1.3669674465765451,0
1155,1155,-1.09,0.74,0.68,2024-03-22 15:27:13.501,1.4825990692024598,0
1156,1156,-1.19,0.73,0.74,2024-03-22 15:27:13.591,1.5800632898716431,0
1157,1157,-1.3,0.72,0.71,2024-03-22 15:27:13.636,1.6469669092000605,0
1158,1158,-1.99,0.63,0.38,2024-03-22 15:27:13.637,2.121650301062831,0
1159,1159,-2.73,0.47,0.05,2024-03-22 15:27:13.639,2.770613650439195,0
1160,1160,-1.84,0.36,-0.6,2024-03-22 15:27:13.640,1.9685527678982853,0
1161,1161,-0.15,0.39,0.51,2024-03-22 15:27:13.771,0.6593178292750773,0
1162,1162,-0.55,0.41,0.46,2024-03-22 15:27:13.772,0.8259539938761723,0
1163,1163,-0.77,0.67,0.47,2024-03-22 15:27:13.774,1.1236992480196826,0
1164,1164,-0.99,0.66,0.6,2024-03-22 15:27:13.775,1.3325539388707686,0
1165,1165,-0.96,0.5,0.32,2024-03-22 15:27:13.832,1.128716084761797,0
1166,1166,-0.88,0.26,0.25,2024-03-22 15:27:13.833,0.9510520490488414,0
1167,1167,-0.88,0.29,0.42,2024-03-22 15:27:13.835,1.0173003489628811,0
1168,1168,-0.85,0.25,0.41,2024-03-22 15:27:13.862,0.9762684057163789,0
1169,1169,-0.84,0.26,0.35,2024-03-22 15:27:13.862,0.9464142856064672,0
1170,1170,-0.88,0.32,0.39,2024-03-22 15:27:13.907,1.0143470806385753,0
1171,1171,-0.77,0.33,0.3,2024-03-22 15:27:13.908,0.889831444712986,0
1172,1172,-0.78,0.49,0.38,2024-03-22 15:27:13.910,0.996443676280802,0
1173,1173,-0.76,0.51,0.49,2024-03-22 15:27:14.001,1.0381714694596456,0
1174,1174,-0.75,0.61,0.48,2024-03-22 15:27:14.002,1.0793516572461452,0
1175,1175,-0.69,0.63,0.46,2024-03-22 15:27:14.003,1.0414413089560064,0
1176,1176,-0.59,0.65,0.5,2024-03-22 15:27:14.004,1.010247494428964,0
1177,1177,-0.53,0.68,0.52,2024-03-22 15:27:14.041,1.0068266980965492,0
1178,1178,-0.53,0.69,0.54,2024-03-22 15:27:14.042,1.0240117186829456,0
1179,1179,-0.56,0.68,0.57,2024-03-22 15:27:14.044,1.049237818609299,0
1180,1180,-0.65,0.69,0.59,2024-03-22 15:27:14.086,1.1165572085656874,0
1181,1181,-0.69,0.71,0.59,2024-03-22 15:27:14.087,1.1525189803209317,0
1182,1182,-0.77,0.75,0.59,2024-03-22 15:27:14.088,1.2261729078722952,0
1183,1183,-0.84,0.81,0.59,2024-03-22 15:27:14.133,1.3075932089147604,0
1184,1184,-0.89,0.82,0.57,2024-03-22 15:27:14.134,1.337684566704722,0
1185,1185,-0.9,0.83,0.56,2024-03-22 15:27:14.136,1.346291201783626,0
1186,1186,-0.92,0.83,0.54,2024-03-22 15:27:14.176,1.351628647225265,0
1187,1187,-0.92,0.77,0.52,2024-03-22 15:27:14.177,1.3075549701637783,0
1188,1188,-0.9,0.68,0.47,2024-03-22 15:27:14.178,1.2220065466273085,0
1189,1189,-0.85,0.49,0.39,2024-03-22 15:27:14.220,1.0557935404235053,0
1190,1190,-0.83,0.29,0.26,2024-03-22 15:27:14.221,0.9168424073961676,0
1191,1191,-1.97,-0.98,-0.13,2024-03-22 15:27:14.223,2.204132482406627,0
1192,1192,-0.78,0.27,-1.19,2024-03-22 15:27:14.265,1.4482403115505382,0
1193,1193,-0.39,0.65,-1.87,2024-03-22 15:27:14.266,2.0177958271341527,0
1194,1194,-0.01,0.06,-0.74,2024-03-22 15:27:14.322,0.7424957912338628,0
1195,1195,-0.75,0.1,-0.48,2024-03-22 15:27:14.326,0.8960468737739115,0
1196,1196,-1.45,0.05,-0.94,2024-03-22 15:27:14.330,1.7287567787285751,0
1197,1197,-1.83,-0.01,-0.71,2024-03-22 15:27:14.367,1.962931481229032,0
1198,1198,-1.03,0.24,-0.6,2024-03-22 15:27:14.373,1.2159358535712317,0
1199,1199,-0.87,0.28,-0.73,2024-03-22 15:27:14.377,1.169700816448377,0
1200,1200,-0.95,0.33,-0.72,2024-03-22 15:27:14.410,1.2368508398347795,0
1201,1201,-0.96,0.39,-0.47,2024-03-22 15:27:14.414,1.1378049041905207,0
1202,1202,-0.89,0.39,-0.36,2024-03-22 15:27:14.418,1.036243214694311,0
1203,1203,-0.83,0.48,-0.23,2024-03-22 15:27:14.462,0.9860020283954796,0
1204,1204,-0.72,0.55,-0.1,2024-03-22 15:27:14.465,0.9115371632577576,0
1205,1205,-0.59,0.56,0.07,2024-03-22 15:27:14.468,0.8164557550780078,0
1206,1206,-0.35,0.52,0.22,2024-03-22 15:27:14.497,0.6643041472096949,0
1207,1207,-0.46,0.53,0.34,2024-03-22 15:27:14.501,0.7798076685952762,0
1208,1208,-0.46,0.56,0.27,2024-03-22 15:27:14.505,0.7733692520394123,0
1209,1209,-0.44,0.51,0.4,2024-03-22 15:27:14.544,0.7833900688673555,0
1210,1210,-0.35,0.47,0.29,2024-03-22 15:27:14.547,0.653834841531101,0
1211,1211,-0.49,0.45,0.24,2024-03-22 15:27:14.550,0.7072481884034769,0
1212,1212,-0.52,0.49,0.14,2024-03-22 15:27:14.594,0.7280796659706957,0
1213,1213,-0.57,0.48,0.18,2024-03-22 15:27:14.595,0.7666159403508381,0
1214,1214,-0.65,0.41,0.22,2024-03-22 15:27:14.598,0.7993747556684537,0
1215,1215,-0.65,0.44,0.41,2024-03-22 15:27:14.628,0.8855506761332183,0
1216,1216,-0.59,0.47,0.45,2024-03-22 15:27:14.629,0.8783507272155013,0
1217,1217,-0.84,0.04,0.47,2024-03-22 15:27:14.631,0.9633794683301072,0
1218,1218,-0.93,0.74,-0.37,2024-03-22 15:27:14.730,1.2447489706764172,0
1219,1219,-0.73,0.55,-1.57,2024-03-22 15:27:14.734,1.816672782864322,0
1220,1220,-2.15,0.24,-1.72,2024-03-22 15:27:14.738,2.7637836384203447,0
1221,1221,-1.52,-0.15,-0.41,2024-03-22 15:27:14.741,1.5814550262337528,0
1222,1222,-1.24,0.72,0.82,2024-03-22 15:27:14.769,1.6517869111964774,0
1223,1223,-2.38,-0.23,0.78,2024-03-22 15:27:14.773,2.515094431626773,0
1224,1224,-1.6,0.74,0.41,2024-03-22 15:27:14.777,1.8098894993893968,0
1225,1225,-1.34,0.82,0.41,2024-03-22 15:27:14.863,1.623607095328177,0
1226,1226,-1.26,0.61,-0.25,2024-03-22 15:27:14.866,1.4220407870381215,0
1227,1227,-0.79,0.46,0.19,2024-03-22 15:27:14.869,0.933702308018996,0
1228,1228,-0.41,0.46,0.34,2024-03-22 15:27:14.872,0.7037755323965164,0
1229,1229,-0.59,0.41,0.19,2024-03-22 15:27:14.875,0.7431688906298487,0
1230,1230,-0.66,0.42,0.23,2024-03-22 15:27:14.901,0.8154140052758476,0
1231,1231,-0.75,0.55,0.33,2024-03-22 15:27:14.905,0.9868637190615532,0
1232,1232,-0.85,0.68,0.39,2024-03-22 15:27:14.950,1.1562871615649808,0
1233,1233,-1.0,0.75,0.46,2024-03-22 15:27:14.954,1.331953452640144,0
1234,1234,-1.09,0.73,0.49,2024-03-22 15:27:14.959,1.4003928020380567,0
1235,1235,-1.05,0.65,0.51,2024-03-22 15:27:14.994,1.3360763451240352,0
1236,1236,-1.01,0.52,0.54,2024-03-22 15:27:14.998,1.2578155667664477,0
1237,1237,-0.96,0.39,0.47,2024-03-22 15:27:15.002,1.1378049041905207,0
1238,1238,-0.98,0.16,0.39,2024-03-22 15:27:15.043,1.0668176976409791,0
1239,1239,-0.83,0.25,0.27,2024-03-22 15:27:15.047,0.907909687138539,0
1240,1240,-0.9,0.2,0.28,2024-03-22 15:27:15.051,0.9635351576356724,0
1241,1241,-0.86,0.2,0.28,2024-03-22 15:27:15.085,0.9262828941527528,0
1242,1242,-0.84,0.26,0.29,2024-03-22 15:27:15.089,0.9259049627256568,0
1243,1243,-0.8,0.33,0.31,2024-03-22 15:27:15.093,0.919238815542512,0
1244,1244,-0.76,0.41,0.31,2024-03-22 15:27:15.125,0.9174965939991276,0
1245,1245,-0.71,0.47,0.35,2024-03-22 15:27:15.127,0.9205976319760985,0
1246,1246,-0.59,0.55,0.4,2024-03-22 15:27:15.130,0.9003332716277901,0
1247,1247,-0.5,0.61,0.42,2024-03-22 15:27:15.173,0.8935882720806042,0
1248,1248,-0.46,0.65,0.48,2024-03-22 15:27:15.176,0.9297849213662264,0
1249,1249,-0.39,0.61,0.52,2024-03-22 15:27:15.179,0.891403387922662,0
1250,1250,-0.37,0.56,0.55,2024-03-22 15:27:15.215,0.8677557259966655,0
1251,1251,-0.36,0.5,0.57,2024-03-22 15:27:15.217,0.8393449827097318,0
1252,1252,-0.41,0.45,0.48,2024-03-22 15:27:15.220,0.7752418977325722,0
1253,1253,-0.48,0.42,0.45,2024-03-22 15:27:15.265,0.7805767098754612,0
1254,1254,-0.56,0.43,0.41,2024-03-22 15:27:15.270,0.8164557550780079,0
1255,1255,-0.62,0.48,0.34,2024-03-22 15:27:15.274,0.8546344247688599,0
1256,1256,-0.79,0.5,0.41,2024-03-22 15:27:15.316,1.0208819716304134,0
1257,1257,-0.82,0.61,0.44,2024-03-22 15:27:15.320,1.1126994203287786,0
1258,1258,-0.85,0.65,0.46,2024-03-22 15:27:15.325,1.1647317287684749,0
1259,1259,-1.28,0.91,0.34,2024-03-22 15:27:15.355,1.6068914089010495,0
1260,1260,-3.13,0.99,-0.03,2024-03-22 15:27:15.359,3.282971215225622,0
1261,1261,-1.82,1.16,-1.57,2024-03-22 15:27:15.497,2.668876167977825,0
1262,1262,-1.55,0.8,-1.01,2024-03-22 15:27:15.500,2.015589243868899,0
1263,1263,-1.08,0.05,-0.55,2024-03-22 15:27:15.504,1.2130127781684743,0
1264,1264,-1.17,0.32,-0.32,2024-03-22 15:27:15.507,1.254472000484666,0
1265,1265,-1.0,-0.13,0.47,2024-03-22 15:27:15.535,1.112564604865713,0
1266,1266,-0.94,0.11,0.31,2024-03-22 15:27:15.538,0.99589156036187,0
1267,1267,-0.94,0.29,0.23,2024-03-22 15:27:15.541,1.010247494428964,0
1268,1268,-0.97,0.32,0.25,2024-03-22 15:27:15.579,1.0515702544290608,0
1269,1269,-1.0,0.29,0.31,2024-03-22 15:27:15.583,1.086370102681402,0
1270,1270,-0.92,0.23,0.59,2024-03-22 15:27:15.587,1.116870628139177,0
1271,1271,-1.03,0.44,0.61,2024-03-22 15:27:15.619,1.275382295627472,0
1272,1272,-0.78,0.42,0.42,2024-03-22 15:27:15.621,0.9804080783020916,0
1273,1273,-0.7,0.42,0.4,2024-03-22 15:27:15.623,0.9090654541890808,0
1274,1274,-0.61,0.44,0.43,2024-03-22 15:27:15.663,0.866371744691619,0
1275,1275,-0.56,0.45,0.44,2024-03-22 15:27:15.664,0.842436941260294,0
1276,1276,-0.5,0.44,0.45,2024-03-22 15:27:15.666,0.8038034585643433,0
1277,1277,-0.45,0.4,0.47,2024-03-22 15:27:15.705,0.7638062581571324,0
1278,1278,-0.44,0.39,0.49,2024-03-22 15:27:15.706,0.7653757247260982,0
1279,1279,-0.42,0.37,0.49,2024-03-22 15:27:15.708,0.7439085965358916,0
1280,1280,-0.44,0.35,0.51,2024-03-22 15:27:15.759,0.7590783885739338,0
1281,1281,-0.46,0.34,0.52,2024-03-22 15:27:15.760,0.7730459236035077,0
1282,1282,-0.48,0.33,0.51,2024-03-22 15:27:15.762,0.7742092740338363,0
1283,1283,-0.51,0.3,0.5,2024-03-22 15:27:15.795,0.7746612162745725,0
1284,1284,-0.56,0.27,0.47,2024-03-22 15:27:15.797,0.7793587107359486,0
1285,1285,-0.61,0.28,0.44,2024-03-22 15:27:15.798,0.8025584090893323,0
1286,1286,-0.68,0.33,0.4,2024-03-22 15:27:15.890,0.8551608035919327,0
1287,1287,-0.76,0.23,0.43,2024-03-22 15:27:15.892,0.9029950165975448,0
1288,1288,-1.05,0.05,0.3,2024-03-22 15:27:15.894,1.0931605554537724,0
1289,1289,-1.26,0.11,0.1,2024-03-22 15:27:15.897,1.2687395319765205,0
1290,1290,-1.43,-0.29,-0.63,2024-03-22 15:27:15.984,1.5893080255255745,0
1291,1291,-1.58,-0.49,-0.53,2024-03-22 15:27:15.986,1.7370664926824189,0
1292,1292,-1.56,-0.34,-0.33,2024-03-22 15:27:15.989,1.6303680566056244,0
1293,1293,-1.45,-0.08,-0.35,2024-03-22 15:27:15.992,1.4937871334296595,0
1294,1294,-1.28,-0.24,0.58,2024-03-22 15:27:16.030,1.425622670975739,0
1295,1295,-1.19,0.81,0.53,2024-03-22 15:27:16.035,1.5339817469578965,0
1296,1296,-1.08,0.53,0.45,2024-03-22 15:27:16.039,1.2844454056128662,0
1297,1297,-0.76,0.63,0.51,2024-03-22 15:27:16.077,1.111125555461668,0
1298,1298,-0.68,0.25,0.43,2024-03-22 15:27:16.127,0.8424962907930219,0
1299,1299,-0.6,0.25,0.49,2024-03-22 15:27:16.130,0.8140024569987488,0
1300,1300,-0.69,0.16,0.36,2024-03-22 15:27:16.133,0.7945438943192503,0
1301,1301,-0.63,0.31,0.38,2024-03-22 15:27:16.136,0.798373346248483,0
1302,1302,-0.8,0.35,0.43,2024-03-22 15:27:16.156,0.973344748791506,0
1303,1303,-0.86,0.43,0.48,2024-03-22 15:27:16.159,1.0746627377926528,0
1304,1304,-0.9,0.53,0.53,2024-03-22 15:27:16.161,1.1712386605641054,0
1305,1305,-0.94,0.56,0.56,2024-03-22 15:27:16.216,1.2291460450247562,0
1306,1306,-0.94,0.56,0.57,2024-03-22 15:27:16.219,1.2337341690980277,0
1307,1307,-0.92,0.52,0.57,2024-03-22 15:27:16.223,1.200708124399931,0
1308,1308,-0.88,0.42,0.54,2024-03-22 15:27:16.255,1.1146299834474218,0
1309,1309,-0.84,0.32,0.48,2024-03-22 15:27:16.259,1.0190191362285597,0
1310,1310,-0.83,0.22,0.44,2024-03-22 15:27:16.263,0.9648315915225828,0
1311,1311,-0.83,0.18,0.41,2024-03-22 15:27:16.299,0.9430800602281866,0
1312,1312,-0.82,0.17,0.38,2024-03-22 15:27:16.303,0.9196194865269004,0
1313,1313,-0.82,0.16,0.36,2024-03-22 15:27:16.307,0.9097252332435326,0
1314,1314,-0.79,0.17,0.35,2024-03-22 15:27:16.345,0.8806247782114697,0
1315,1315,-0.75,0.2,0.34,2024-03-22 15:27:16.349,0.8474078120952155,0
1316,1316,-0.73,0.24,0.37,2024-03-22 15:27:16.353,0.8528774824088158,0
1317,1317,-0.63,0.3,0.23,2024-03-22 15:27:16.389,0.7347108274688757,0
1318,1318,-0.7,0.37,0.41,2024-03-22 15:27:16.393,0.8916277250063503,0
1319,1319,-0.66,0.42,0.4,2024-03-22 15:27:16.397,0.8786353054595518,0
1320,1320,-0.64,0.49,0.43,2024-03-22 15:27:16.435,0.9135644476444996,0
1321,1321,-0.64,0.51,0.44,2024-03-22 15:27:16.440,0.9291393867445292,0
1322,1322,-0.63,0.54,0.44,2024-03-22 15:27:16.445,0.9392017887546852,0
1323,1323,-0.63,0.55,0.43,2024-03-22 15:27:16.481,0.9403722667114338,0
1324,1324,-0.63,0.55,0.43,2024-03-22 15:27:16.497,0.9403722667114338,0
1325,1325,-0.62,0.54,0.44,2024-03-22 15:27:16.499,0.9325234581499814,0
1326,1326,-0.66,0.52,0.43,2024-03-22 15:27:16.521,0.9438749917229504,0
1327,1327,-0.78,0.49,0.42,2024-03-22 15:27:16.525,1.0123734488813898,0
1328,1328,-0.88,0.49,0.41,2024-03-22 15:27:16.530,1.0874741376235115,0
1329,1329,-0.95,0.51,0.41,2024-03-22 15:27:16.620,1.153559708034222,0
1330,1330,-1.05,0.54,0.42,2024-03-22 15:27:16.628,1.2531959144523257,0
1331,1331,-1.78,0.03,-0.09,2024-03-22 15:27:16.629,1.7825262971412232,0
1332,1332,-2.15,-0.21,-0.34,2024-03-22 15:27:16.632,2.186824181318653,0
1333,1333,-1.6,0.29,-0.16,2024-03-22 15:27:16.653,1.6339216627488602,0
1334,1334,-1.51,0.32,-0.04,2024-03-22 15:27:16.655,1.5440531078949324,0
1335,1335,-1.22,0.25,0.12,2024-03-22 15:27:16.746,1.251119498689074,0
1336,1336,-0.86,0.25,0.34,2024-03-22 15:27:16.747,0.9579665964948882,0
1337,1337,-0.84,0.24,0.3,2024-03-22 15:27:16.794,0.9236882591004392,0
1338,1338,-0.81,0.11,0.12,2024-03-22 15:27:16.798,0.826196102629394,0
1339,1339,-0.8,0.09,-0.1,2024-03-22 15:27:16.802,0.8112336284942828,0
1340,1340,-0.82,0.14,0.3,2024-03-22 15:27:16.805,0.8843076387773656,0
1341,1341,-1.2,0.42,0.4,2024-03-22 15:27:16.838,1.3328165665236908,0
1342,1342,-0.99,0.47,0.27,2024-03-22 15:27:16.843,1.1286717857729944,0
1343,1343,-0.93,0.46,0.27,2024-03-22 15:27:16.848,1.072100741535048,0
1344,1344,-0.94,0.42,0.32,2024-03-22 15:27:16.884,1.0781465577554843,0
1345,1345,-0.82,0.38,0.33,2024-03-22 15:27:16.888,0.9621330469326992,0
1346,1346,-0.78,0.34,0.36,2024-03-22 15:27:16.893,0.923904756996088,0
1347,1347,-0.75,0.35,0.38,2024-03-22 15:27:16.930,0.9107140056021976,0
1348,1348,-0.73,0.4,0.4,2024-03-22 15:27:16.932,0.9235258523723092,0
1349,1349,-0.7,0.4,0.44,2024-03-22 15:27:16.934,0.9184770002564028,0
1350,1350,-0.64,0.4,0.47,2024-03-22 15:27:16.974,0.8891006692158094,0
1351,1351,-0.59,0.41,0.49,2024-03-22 15:27:16.978,0.8696551040498756,0
1352,1352,-0.55,0.38,0.48,2024-03-22 15:27:16.982,0.8229823813423954,0
1353,1353,-0.49,0.37,0.47,2024-03-22 15:27:17.017,0.7732399368889323,0
1354,1354,-0.5,0.35,0.45,2024-03-22 15:27:17.022,0.758287544405155,0
1355,1355,-0.53,0.33,0.43,2024-03-22 15:27:17.025,0.7580897044545586,0
1356,1356,-0.56,0.31,0.39,2024-03-22 15:27:17.063,0.7495331880577404,0
1357,1357,-0.59,0.28,0.38,2024-03-22 15:27:17.067,0.7555792479945436,0
1358,1358,-0.59,0.28,0.36,2024-03-22 15:27:17.071,0.7457211275000863,0
1359,1359,-0.63,0.26,0.34,2024-03-22 15:27:17.107,0.7616429609731846,0
1360,1360,-0.67,0.26,0.33,2024-03-22 15:27:17.110,0.7908223567907018,0
1361,1361,-0.73,0.28,0.34,2024-03-22 15:27:17.112,0.8525843066817498,0
1362,1362,-0.82,0.31,0.46,2024-03-22 15:27:17.153,0.99,0
1363,1363,-1.49,-0.07,0.09,2024-03-22 15:27:17.157,1.494356048604214,0
1364,1364,-1.25,0.67,-1.11,2024-03-22 15:27:17.161,1.8009719598039278,0
1365,1365,-0.93,0.61,-1.69,2024-03-22 15:27:17.200,2.023141122116794,0
1366,1366,-1.36,0.28,-1.43,2024-03-22 15:27:17.206,1.9932134858062749,0
1367,1367,-1.44,-0.12,-1.23,2024-03-22 15:27:17.210,1.8976037521042164,0
1368,1368,-1.41,-0.26,-1.34,2024-03-22 15:27:17.255,1.9624729297496053,0
1369,1369,-1.51,-0.18,-1.34,2024-03-22 15:27:17.258,2.0268448386593385,0
1370,1370,-1.51,-0.05,-1.12,2024-03-22 15:27:17.262,1.8806913622388972,0
1371,1371,-1.39,0.29,-0.46,2024-03-22 15:27:17.284,1.492581656057718,0
1372,1372,-1.07,0.33,-0.34,2024-03-22 15:27:17.288,1.170213655705658,0
1373,1373,-0.92,0.39,-0.28,2024-03-22 15:27:17.292,1.0377379245262264,0
1374,1374,-0.69,0.47,0.33,2024-03-22 15:27:17.373,0.8977193325310533,0
1375,1375,-0.7,0.45,0.57,2024-03-22 15:27:17.375,1.0086624807139402,0
1376,1376,-0.54,0.36,0.44,2024-03-22 15:27:17.377,0.7840918313565064,0
1377,1377,-0.48,0.54,0.42,2024-03-22 15:27:17.380,0.8357032966310471,0
1378,1378,-0.77,0.42,0.44,2024-03-22 15:27:17.430,0.9812746812182612,0
1379,1379,-0.86,0.59,0.64,2024-03-22 15:27:17.433,1.2236421045387411,0
1380,1380,-0.82,0.64,0.72,2024-03-22 15:27:17.437,1.2650691680694774,0
1381,1381,-0.87,0.61,0.74,2024-03-22 15:27:17.468,1.2948358969382954,0
1382,1382,-0.86,0.48,0.71,2024-03-22 15:27:17.473,1.214125199474914,0
1383,1383,-0.85,0.42,0.65,2024-03-22 15:27:17.516,1.149521639639724,0
1384,1384,-0.77,0.28,0.63,2024-03-22 15:27:17.521,1.0335376142163382,0
1385,1385,-0.8,0.22,0.66,2024-03-22 15:27:17.525,1.0601886624558858,0
1386,1386,-0.77,0.12,0.5,2024-03-22 15:27:17.561,0.9259049627256568,0
1387,1387,-0.69,0.2,0.45,2024-03-22 15:27:17.566,0.8477027781009095,0
1388,1388,-0.69,0.36,0.39,2024-03-22 15:27:17.571,0.8705170877128144,0
1389,1389,-0.64,0.31,0.52,2024-03-22 15:27:17.604,0.8809653795694812,0
1390,1390,-0.56,0.26,0.55,2024-03-22 15:27:17.609,0.8268615361715649,0
1391,1391,-0.52,0.29,0.57,2024-03-22 15:27:17.613,0.8242572413997951,0
1392,1392,-0.41,0.43,0.57,2024-03-22 15:27:17.648,0.8233468284993876,0
1393,1393,-0.45,0.46,0.58,2024-03-22 15:27:17.652,0.8663140308225418,0
1394,1394,-0.36,0.53,0.57,2024-03-22 15:27:17.655,0.8575546629807339,0
1395,1395,-0.32,0.47,0.57,2024-03-22 15:27:17.697,0.8051086883148137,0
1396,1396,-0.38,0.5,0.48,2024-03-22 15:27:17.700,0.7904429138147802,0
1397,1397,-0.39,0.53,0.36,2024-03-22 15:27:17.703,0.750066663703967,0
1398,1398,-0.47,0.54,0.37,2024-03-22 15:27:17.705,0.8058535847162311,0
1399,1399,-0.49,0.57,0.29,2024-03-22 15:27:17.738,0.8056674251823763,0
1400,1400,-0.57,0.62,0.3,2024-03-22 15:27:17.742,0.8940357934669059,0
1401,1401,-0.61,0.64,0.37,2024-03-22 15:27:17.790,0.9584362263604188,0
1402,1402,-0.63,0.65,0.43,2024-03-22 15:27:17.793,1.0021476937058729,0
1403,1403,-0.64,0.72,0.59,2024-03-22 15:27:17.796,1.1296459622377268,0
1404,1404,-0.74,0.67,0.73,2024-03-22 15:27:17.830,1.2366891282775958,0
1405,1405,-0.84,0.65,0.81,2024-03-22 15:27:17.835,1.335739495560418,0
1406,1406,-0.81,0.69,0.93,2024-03-22 15:27:17.840,1.4131878855976654,0
1407,1407,-0.89,0.7,1.01,2024-03-22 15:27:17.870,1.5173002339682151,0
1408,1408,-0.93,0.74,1.05,2024-03-22 15:27:17.874,1.5858751527153707,0
1409,1409,-0.96,0.69,1.03,2024-03-22 15:27:17.877,1.567992346920099,0
1410,1410,-0.94,0.62,0.99,2024-03-22 15:27:17.922,1.4993665329064805,0
1411,1411,-0.94,0.57,0.97,2024-03-22 15:27:17.924,1.4660832172833846,0
1412,1412,-0.92,0.52,0.95,2024-03-22 15:27:17.927,1.421020759876505,0
1413,1413,-0.79,0.51,0.81,2024-03-22 15:27:17.956,1.2410882321575691,0
1414,1414,-1.13,-0.03,0.14,2024-03-22 15:27:17.957,1.1390346790155248,0
1415,1415,-1.01,-0.13,0.59,2024-03-22 15:27:17.959,1.1769027147559818,0
1416,1416,-1.18,0.35,0.23,2024-03-22 15:27:18.060,1.2521182052825524,0
1417,1417,-1.24,-0.04,0.27,2024-03-22 15:27:18.064,1.2696850003051938,0
1418,1418,-0.95,0.5,0.16,2024-03-22 15:27:18.067,1.0854031509075326,0
1419,1419,-0.5,0.62,0.39,2024-03-22 15:27:18.069,0.8868483523128405,0
1420,1420,-0.59,0.73,0.31,2024-03-22 15:27:18.096,0.9884836872705588,0
1421,1421,-0.51,0.78,0.36,2024-03-22 15:27:18.100,0.9990495483208028,0
1422,1422,-0.3,0.59,0.24,2024-03-22 15:27:18.104,0.7040596565632773,0
1423,1423,-0.42,0.47,0.67,2024-03-22 15:27:18.197,0.9198912979260104,0
1424,1424,-0.82,0.64,0.32,2024-03-22 15:27:18.200,1.0883014288330233,0
1425,1425,-0.44,-0.04,0.72,2024-03-22 15:27:18.204,0.844748483277715,0
1426,1426,-0.05,0.66,1.48,2024-03-22 15:27:18.208,1.6212649382503774,0
1427,1427,-0.15,0.67,0.55,2024-03-22 15:27:18.231,0.879715863219483,0
1428,1428,-0.1,0.65,0.55,2024-03-22 15:27:18.235,0.8573214099741124,0
1429,1429,-0.04,0.61,0.55,2024-03-22 15:27:18.241,0.8223138087129511,0
1430,1430,-0.03,0.62,0.49,2024-03-22 15:27:18.278,0.7908223567907018,0
1431,1431,-0.02,0.64,0.51,2024-03-22 15:27:18.283,0.8185963596303125,0
1432,1432,-0.06,0.52,0.55,2024-03-22 15:27:18.288,0.7592759709091287,0
1433,1433,-0.02,0.54,0.75,2024-03-22 15:27:18.334,0.9243916918709298,0
1434,1434,0.02,0.5,0.65,2024-03-22 15:27:18.338,0.8203048213926333,0
1435,1435,0.08,0.57,0.68,2024-03-22 15:27:18.375,0.8908984229416954,0
1436,1436,-0.03,0.67,0.83,2024-03-22 15:27:18.379,1.0670988707706517,0
1437,1437,-0.47,0.7,0.41,2024-03-22 15:27:18.384,0.9375499986667376,0
1438,1438,0.17,0.06,1.05,2024-03-22 15:27:18.413,1.065363787633126,0
1439,1439,-0.5,0.62,1.08,2024-03-22 15:27:18.418,1.3419388957773004,0
1440,1440,-0.05,0.95,0.88,2024-03-22 15:27:18.422,1.2959166639873103,0
1441,1441,0.06,0.65,1.03,2024-03-22 15:27:18.464,1.2194260945215172,0
1442,1442,0.35,0.87,0.7,2024-03-22 15:27:18.466,1.170213655705658,0
1443,1443,0.23,1.06,0.8,2024-03-22 15:27:18.468,1.3477759457714031,0
1444,1444,0.31,1.13,0.79,2024-03-22 15:27:18.495,1.4131878855976652,0
1445,1445,0.22,1.07,0.91,2024-03-22 15:27:18.497,1.4217594733287342,0
1446,1446,0.21,1.21,1.36,2024-03-22 15:27:18.500,1.8324300805214917,0
1447,1447,0.55,1.1,1.36,2024-03-22 15:27:18.556,1.833603010468733,0
1448,1448,0.52,1.05,1.43,2024-03-22 15:27:18.559,1.8487292933255528,0
1449,1449,0.25,0.87,1.35,2024-03-22 15:27:18.563,1.625392260348252,0
1450,1450,0.31,0.68,1.04,2024-03-22 15:27:18.567,1.2806638903318857,0
1451,1451,0.21,0.62,0.82,2024-03-22 15:27:18.593,1.0492378186092988,0
1452,1452,0.07,0.53,0.68,2024-03-22 15:27:18.596,0.8649855490122365,0
1453,1453,0.26,0.37,0.44,2024-03-22 15:27:18.642,0.6309516621738943,0
1454,1454,0.79,0.4,0.07,2024-03-22 15:27:18.646,0.8882567196480982,0
1455,1455,0.34,0.71,0.38,2024-03-22 15:27:18.652,0.8741281370600079,0
1456,1456,0.45,0.75,0.54,2024-03-22 15:27:18.731,1.0279105019407089,0
1457,1457,0.42,0.93,0.51,2024-03-22 15:27:18.735,1.1407892005098927,0
1458,1458,0.33,0.99,0.67,2024-03-22 15:27:18.739,1.2401209618420297,0
1459,1459,0.23,1.16,0.61,2024-03-22 15:27:18.742,1.3306389442670017,0
1460,1460,0.03,0.86,0.69,2024-03-22 15:27:18.775,1.1029959202100432,0
1461,1461,-0.07,0.71,0.77,2024-03-22 15:27:18.779,1.0497142468310126,0
1462,1462,-0.04,0.5,0.91,2024-03-22 15:27:18.784,1.0390861369491944,0
1463,1463,-0.09,0.62,0.81,2024-03-22 15:27:18.819,1.0240117186829456,0
1464,1464,-0.12,0.63,0.77,2024-03-22 15:27:18.823,1.0020977996183806,0
1465,1465,-0.13,0.6,0.79,2024-03-22 15:27:18.828,1.000499875062461,0
1466,1466,-0.09,0.57,0.79,2024-03-22 15:27:18.832,0.978314877736202,0
1467,1467,-0.07,0.62,0.75,2024-03-22 15:27:18.860,0.975602378020882,0
1468,1468,0.01,0.68,0.7,2024-03-22 15:27:18.864,0.9759610647971568,0
1469,1469,0.01,0.72,0.61,2024-03-22 15:27:18.916,0.943716058992322,0
1470,1470,0.05,0.76,0.59,2024-03-22 15:27:18.919,0.963431367560762,0
1471,1471,0.14,0.74,0.66,2024-03-22 15:27:18.922,1.0013990213696036,0
1472,1472,0.13,0.79,0.57,2024-03-22 15:27:18.953,0.9828021163998376,0
1473,1473,0.15,0.67,0.55,2024-03-22 15:27:18.957,0.879715863219483,0
1474,1474,0.15,0.78,0.47,2024-03-22 15:27:18.962,0.9229301165310404,0
1475,1475,0.17,0.78,0.47,2024-03-22 15:27:18.964,0.926390846241477,0
1476,1476,0.15,0.75,0.43,2024-03-22 15:27:19.011,0.8774394566008529,0
1477,1477,0.19,0.64,0.48,2024-03-22 15:27:19.014,0.8222530024268686,0
1478,1478,0.2,0.67,0.53,2024-03-22 15:27:19.048,0.877382470761754,0
1479,1479,0.23,0.63,0.56,2024-03-22 15:27:19.052,0.8737276463521113,0
1480,1480,0.24,0.6,0.56,2024-03-22 15:27:19.056,0.855102333057278,0
1481,1481,0.24,0.59,0.51,2024-03-22 15:27:19.090,0.8159656855530139,0
1482,1482,0.24,0.51,0.61,2024-03-22 15:27:19.095,0.8305419917138447,0
1483,1483,0.14,0.64,0.61,2024-03-22 15:27:19.099,0.8951536181013848,0
1484,1484,0.09,1.09,0.61,2024-03-22 15:27:19.135,1.2523178510266475,0
1485,1485,0.15,1.43,0.63,2024-03-22 15:27:19.139,1.5698089055678082,0
1486,1486,0.25,1.84,0.66,2024-03-22 15:27:19.142,1.9707105317625928,0
1487,1487,0.45,1.87,0.85,2024-03-22 15:27:19.177,2.1028314245321718,0
1488,1488,0.29,1.18,0.74,2024-03-22 15:27:19.182,1.422708684165525,0
1489,1489,0.26,1.1,0.82,2024-03-22 15:27:19.187,1.3964240043768943,0
1490,1490,0.24,1.08,0.78,2024-03-22 15:27:19.219,1.3536617007214171,0
1491,1491,0.23,0.88,0.77,2024-03-22 15:27:19.221,1.191721443962472,0
1492,1492,-2.32,1.95,1.0,2024-03-22 15:27:19.224,3.191379012276668,0
1493,1493,-1.18,1.26,-0.25,2024-03-22 15:27:19.310,1.7442763542512407,0
1494,1494,-1.56,0.66,0.73,2024-03-22 15:27:19.313,1.8444782460088816,0
1495,1495,-0.39,0.78,0.63,2024-03-22 15:27:19.316,1.0758252646224664,0
1496,1496,0.34,0.88,0.9,2024-03-22 15:27:19.319,1.3038404810405295,0
1497,1497,0.18,0.81,0.68,2024-03-22 15:27:19.357,1.072800074571213,0
1498,1498,-0.1,1.01,0.65,2024-03-22 15:27:19.363,1.20523856559604,0
1499,1499,-0.26,1.04,0.63,2024-03-22 15:27:19.367,1.2434226956268737,0
1500,1500,-0.34,0.92,0.61,2024-03-22 15:27:19.405,1.1550324670761425,0
1501,1501,-0.27,0.89,0.48,2024-03-22 15:27:19.411,1.0466135867644752,0
1502,1502,-0.15,0.86,0.37,2024-03-22 15:27:19.416,0.9481561052906846,0
1503,1503,-0.07,0.59,0.3,2024-03-22 15:27:19.444,0.6655824516917495,0
1504,1504,-0.05,0.69,0.45,2024-03-22 15:27:19.449,0.8252878285786117,0
1505,1505,-0.02,0.69,0.42,2024-03-22 15:27:19.452,0.8080222769206304,0
1506,1506,0.08,0.71,0.37,2024-03-22 15:27:19.491,0.8046117075956576,0
1507,1507,-0.02,0.61,0.38,2024-03-22 15:27:19.495,0.7189575787207476,0
1508,1508,-0.13,0.64,0.41,2024-03-22 15:27:19.498,0.7711031059462801,0
1509,1509,-0.11,0.76,0.45,2024-03-22 15:27:19.542,0.8900561780022652,0
1510,1510,0.05,0.73,0.46,2024-03-22 15:27:19.546,0.864291617453276,0
1511,1511,0.1,0.53,0.48,2024-03-22 15:27:19.550,0.7220110802473879,0
1512,1512,0.07,0.47,0.49,2024-03-22 15:27:19.586,0.6825686778632608,0
1513,1513,0.05,0.42,0.51,2024-03-22 15:27:19.591,0.6625707509390978,0
1514,1514,0.02,0.41,0.57,2024-03-22 15:27:19.595,0.7024243731534378,0
1515,1515,0.04,0.46,0.57,2024-03-22 15:27:19.640,0.7335529974037323,0
1516,1516,-0.04,0.51,0.59,2024-03-22 15:27:19.641,0.7808969202141854,0
1517,1517,-0.07,0.51,0.63,2024-03-22 15:27:19.642,0.8135723692456621,0
1518,1518,-0.24,1.05,1.03,2024-03-22 15:27:19.675,1.4903019828209316,0
1519,1519,-1.51,1.26,0.41,2024-03-22 15:27:19.679,2.0089300634915093,0
1520,1520,-2.01,1.37,1.24,2024-03-22 15:27:19.726,2.730311337558411,0
1521,1521,-0.79,0.32,1.35,2024-03-22 15:27:19.729,1.596558799418299,0
1522,1522,-0.62,0.7,1.37,2024-03-22 15:27:19.734,1.6587043136134902,0
1523,1523,-0.36,0.45,1.24,2024-03-22 15:27:19.763,1.367369737854396,0
1524,1524,-0.62,0.52,1.7,2024-03-22 15:27:19.766,1.8827639257219688,0
1525,1525,-0.62,0.58,1.05,2024-03-22 15:27:19.772,1.3502962637880622,0
1526,1526,-0.22,0.87,1.4,2024-03-22 15:27:19.810,1.6629191201017564,0
1527,1527,-0.29,0.93,1.11,2024-03-22 15:27:19.811,1.4768547660484426,0
1528,1528,-0.15,0.68,0.45,2024-03-22 15:27:19.856,0.8290958931269652,0
1529,1529,0.21,0.92,0.49,2024-03-22 15:27:19.860,1.063296760081587,0
1530,1530,0.55,0.6,1.11,2024-03-22 15:27:19.864,1.3764446955835168,0
1531,1531,0.61,0.29,0.43,2024-03-22 15:27:19.900,0.8006872048434395,0
1532,1532,0.67,0.17,0.26,2024-03-22 15:27:19.904,0.7385120175054704,0
1533,1533,0.56,0.52,0.45,2024-03-22 15:27:19.907,0.8868483523128405,0
1534,1534,0.46,0.45,0.47,2024-03-22 15:27:19.945,0.7968688725254613,0
1535,1535,0.2,-0.05,0.22,2024-03-22 15:27:19.955,0.3014962686336267,0
1536,1536,-0.02,0.71,0.55,2024-03-22 15:27:19.957,0.8983317872590282,0
1537,1537,-0.14,1.01,0.73,2024-03-22 15:27:19.981,1.2540334923757022,0
1538,1538,0.02,1.01,0.86,2024-03-22 15:27:19.983,1.3266876045248934,0
1539,1539,0.16,0.86,0.91,2024-03-22 15:27:20.039,1.2622598781550494,0
1540,1540,0.18,0.69,0.91,2024-03-22 15:27:20.043,1.156114181212219,0
1541,1541,0.13,0.59,0.82,2024-03-22 15:27:20.047,1.0185283501208986,0
1542,1542,0.06,0.5,0.99,2024-03-22 15:27:20.077,1.110720486891279,0
1543,1543,-0.05,0.54,1.0,2024-03-22 15:27:20.082,1.13758516164725,0
1544,1544,-0.09,0.41,0.95,2024-03-22 15:27:20.087,1.03860483341837,0
1545,1545,-0.22,0.21,0.73,2024-03-22 15:27:20.131,0.7908223567907018,0
1546,1546,-0.27,0.52,0.79,2024-03-22 15:27:20.134,0.9835649444749442,0
1547,1547,-0.43,0.61,0.7,2024-03-22 15:27:20.138,1.0232301793829186,0
1548,1548,-0.56,0.48,0.76,2024-03-22 15:27:20.166,1.0590561835898982,0
1549,1549,-0.54,0.4,0.72,2024-03-22 15:27:20.170,0.9848857801796104,0
1550,1550,-0.44,0.48,0.79,2024-03-22 15:27:20.174,1.0237675517420934,0
1551,1551,-0.25,0.39,0.76,2024-03-22 15:27:20.178,0.8900561780022652,0
1552,1552,-0.28,0.44,0.76,2024-03-22 15:27:20.217,0.921737489744233,0
1553,1553,-0.22,0.5,0.77,2024-03-22 15:27:20.220,0.9440868604106298,0
1554,1554,-0.1,0.43,0.66,2024-03-22 15:27:20.225,0.7940403012442127,0
1555,1555,-0.02,0.32,0.62,2024-03-22 15:27:20.261,0.6979971346646059,0
1556,1556,-0.03,0.37,0.6,2024-03-22 15:27:20.265,0.7055494312945054,0
1557,1557,-0.13,0.46,0.57,2024-03-22 15:27:20.269,0.7439085965358916,0
1558,1558,-0.2,0.43,0.61,2024-03-22 15:27:20.302,0.7726577508832743,0
1559,1559,-0.21,0.41,0.76,2024-03-22 15:27:20.307,0.8887069258197552,0
1560,1560,-0.15,0.75,0.69,2024-03-22 15:27:20.312,1.0300970828033638,0
1561,1561,-0.15,0.71,0.45,2024-03-22 15:27:20.354,0.8538735269347563,0
1562,1562,-0.23,0.8,0.82,2024-03-22 15:27:20.360,1.1684605256490268,0
1563,1563,-0.43,1.32,1.14,2024-03-22 15:27:20.362,1.7963574254585306,0
1564,1564,-0.48,1.21,1.23,2024-03-22 15:27:20.393,1.790921550487346,0
1565,1565,-0.42,1.02,1.33,2024-03-22 15:27:20.398,1.727917822120022,0
1566,1566,-0.39,0.86,1.3,2024-03-22 15:27:20.403,1.6067669401627604,0
1567,1567,-1.0,-1.26,1.17,2024-03-22 15:27:20.442,1.9890952717253136,0
1568,1568,-1.89,2.08,1.56,2024-03-22 15:27:20.447,3.214358411876311,0
1569,1569,-2.73,1.59,1.16,2024-03-22 15:27:20.450,3.365501448521453,0
1570,1570,-1.57,1.81,0.4,2024-03-22 15:27:20.484,2.4291973983190416,0
1571,1571,0.02,0.35,0.93,2024-03-22 15:27:20.488,0.9938812806366764,0
1572,1572,0.84,0.69,0.74,2024-03-22 15:27:20.492,1.3150285168010616,0
1573,1573,0.67,-0.03,0.78,2024-03-22 15:27:20.530,1.028688485402651,0
1574,1574,0.64,0.03,0.96,2024-03-22 15:27:20.533,1.154166365824269,0
1575,1575,0.56,0.18,1.09,2024-03-22 15:27:20.537,1.238587905640936,0
1576,1576,0.45,0.36,1.12,2024-03-22 15:27:20.573,1.2595634164265015,0
1577,1577,0.38,0.54,1.04,2024-03-22 15:27:20.578,1.2319090875547596,0
1578,1578,0.18,0.65,0.96,2024-03-22 15:27:20.581,1.1732433677630572,0
1579,1579,-0.11,0.79,0.91,2024-03-22 15:27:20.616,1.2100826418059225,0
1580,1580,-0.24,0.8,0.7,2024-03-22 15:27:20.618,1.0897706180660225,0
1581,1581,-0.24,0.8,0.46,2024-03-22 15:27:20.621,0.9535197952848176,0
1582,1582,-0.24,0.82,0.39,2024-03-22 15:27:20.664,0.939201788754685,0
1583,1583,-0.19,0.72,0.5,2024-03-22 15:27:20.667,0.8969392398596462,0
1584,1584,-0.18,0.58,0.65,2024-03-22 15:27:20.671,0.8895504482602434,0
1585,1585,-0.18,0.57,0.6,2024-03-22 15:27:20.710,0.8469356528095862,0
1586,1586,-0.24,0.52,0.55,2024-03-22 15:27:20.714,0.7940403012442127,0
1587,1587,-0.31,0.58,0.47,2024-03-22 15:27:20.718,0.8083316151184488,0
1588,1588,-0.31,0.6,0.37,2024-03-22 15:27:20.764,0.7700649323271382,0
1589,1589,-0.32,0.64,0.3,2024-03-22 15:27:20.769,0.7758865896508329,0
1590,1590,-0.24,0.65,0.26,2024-03-22 15:27:20.773,0.7400675644831356,0
1591,1591,-0.07,0.62,0.49,2024-03-22 15:27:20.793,0.7933473388119481,0
1592,1592,0.08,0.57,0.56,2024-03-22 15:27:20.795,0.8030566605165541,0
1593,1593,0.16,0.52,0.55,2024-03-22 15:27:20.797,0.7736278174936576,0
1594,1594,0.13,0.59,0.55,2024-03-22 15:27:20.849,0.8170067319184096,0
1595,1595,0.09,0.67,0.61,2024-03-22 15:27:20.852,0.9105492847726586,0
1596,1596,0.02,0.63,0.59,2024-03-22 15:27:20.856,0.8633655077659751,0
1597,1597,-0.02,0.59,0.6,2024-03-22 15:27:20.860,0.8417244204607586,0
1598,1598,-0.05,0.66,0.67,2024-03-22 15:27:20.887,0.9418067742376884,0
1599,1599,-0.15,0.57,0.58,2024-03-22 15:27:20.892,0.8269220035771209,0
1600,1600,-0.68,0.94,0.59,2024-03-22 15:27:20.935,1.3015759678174763,0
1601,1601,-1.44,1.02,0.85,2024-03-22 15:27:20.940,1.9586985475054604,0
1602,1602,-3.28,1.43,1.55,2024-03-22 15:27:20.945,3.899461501284504,0
1603,1603,-1.21,0.75,0.99,2024-03-22 15:27:20.978,1.7339838522892883,0
1604,1604,-0.27,0.61,0.02,2024-03-22 15:27:20.983,0.6673829485385434,0
1605,1605,0.03,0.88,0.17,2024-03-22 15:27:20.987,0.8967719888578144,0
1606,1606,0.01,0.79,0.99,2024-03-22 15:27:21.023,1.2666096478394595,0
1607,1607,-0.02,0.87,0.99,2024-03-22 15:27:21.028,1.318104699938514,0
1608,1608,0.12,1.1,1.1,2024-03-22 15:27:21.032,1.5602563891873669,0
1609,1609,-0.0,1.13,1.01,2024-03-22 15:27:21.069,1.515585695366646,0
1610,1610,-0.08,0.91,1.05,2024-03-22 15:27:21.073,1.3917614738165445,0
1611,1611,-0.06,0.89,1.06,2024-03-22 15:27:21.115,1.38538803228554,0
1612,1612,-0.08,0.83,0.76,2024-03-22 15:27:21.119,1.128228700219951,0
1613,1613,0.03,0.47,0.69,2024-03-22 15:27:21.123,0.8354040938372279,0
1614,1614,-0.03,0.52,0.49,2024-03-22 15:27:21.166,0.715122367151245,0
1615,1615,0.04,0.46,0.59,2024-03-22 15:27:21.169,0.7491995728776144,0
1616,1616,0.04,0.36,0.6,2024-03-22 15:27:21.173,0.7008566187174092,0
1617,1617,-0.07,0.65,0.33,2024-03-22 15:27:21.212,0.7323250644351865,0
1618,1618,-0.09,1.14,-0.19,2024-03-22 15:27:21.215,1.1592238782909885,0
1619,1619,-0.05,1.2,0.42,2024-03-22 15:27:21.219,1.2723600119463043,0
1620,1620,0.06,1.06,0.54,2024-03-22 15:27:21.251,1.1911339135462478,0
1621,1621,0.14,1.21,0.7,2024-03-22 15:27:21.258,1.4048843368761714,0
1622,1622,0.06,1.32,0.79,2024-03-22 15:27:21.262,1.5395129099815956,0
1623,1623,-0.04,1.32,0.77,2024-03-22 15:27:21.288,1.528692251566678,0
1624,1624,-0.13,0.92,0.68,2024-03-22 15:27:21.290,1.151390463743729,0
1625,1625,-0.26,0.7,0.47,2024-03-22 15:27:21.293,0.8823264701911645,0
1626,1626,-0.32,0.63,0.45,2024-03-22 15:27:21.347,0.8377350416450299,0
1627,1627,-0.33,0.56,0.47,2024-03-22 15:27:21.355,0.802122185206219,0
1628,1628,-0.33,0.59,0.45,2024-03-22 15:27:21.356,0.8120960534321048,0
1629,1629,-0.3,0.61,0.43,2024-03-22 15:27:21.380,0.8043631020876081,0
1630,1630,-0.3,0.75,0.39,2024-03-22 15:27:21.381,0.8969949832635632,0
1631,1631,-0.28,0.84,0.32,2024-03-22 15:27:21.383,0.9414881836751856,0
1632,1632,-0.23,0.94,0.28,2024-03-22 15:27:21.421,1.007422453591342,0
1633,1633,-0.16,1.03,0.23,2024-03-22 15:27:21.422,1.0674268124794315,0
1634,1634,-0.08,1.08,0.15,2024-03-22 15:27:21.423,1.0932977636490435,0
1635,1635,0.04,1.09,0.09,2024-03-22 15:27:21.476,1.0944404963267762,0
1636,1636,0.12,0.98,0.09,2024-03-22 15:27:21.480,0.9914131328563284,0
1637,1637,0.12,0.9,0.08,2024-03-22 15:27:21.484,0.9114823092084672,0
1638,1638,0.12,0.98,0.07,2024-03-22 15:27:21.514,0.9897979591815697,0
1639,1639,0.13,1.07,0.03,2024-03-22 15:27:21.517,1.0782856764327344,0
1640,1640,0.1,1.01,0.03,2024-03-22 15:27:21.520,1.0153817016275208,0
1641,1641,0.04,0.97,-0.03,2024-03-22 15:27:21.566,0.9712878049270464,0
1642,1642,-0.01,0.83,-0.07,2024-03-22 15:27:21.570,0.8330066026148892,0
1643,1643,-0.07,0.72,-0.04,2024-03-22 15:27:21.575,0.7244998274671982,0
1644,1644,-0.11,0.71,0.02,2024-03-22 15:27:21.608,0.7187489130426563,0
1645,1645,-0.2,1.37,0.1,2024-03-22 15:27:21.613,1.3881282361511131,0
1646,1646,-0.19,1.52,0.14,2024-03-22 15:27:21.617,1.5382132491953122,0
1647,1647,-0.07,1.43,0.23,2024-03-22 15:27:21.656,1.4500689638772355,0
1648,1648,-0.03,1.39,0.11,2024-03-22 15:27:21.661,1.3946684193742969,0
1649,1649,-0.09,1.47,-0.12,2024-03-22 15:27:21.666,1.47763324272297,0
1650,1650,-0.09,1.58,-0.13,2024-03-22 15:27:21.697,1.5878916839633617,0
1651,1651,-0.08,1.23,-0.07,2024-03-22 15:27:21.701,1.2345849504995594,0
1652,1652,-0.12,1.64,-0.12,2024-03-22 15:27:21.706,1.6487571076419958,0
1653,1653,-0.48,3.15,-0.07,2024-03-22 15:27:21.742,3.1871303707253644,0
1654,1654,-0.31,2.44,0.82,2024-03-22 15:27:21.746,2.592701294017496,0
1655,1655,0.55,1.55,2.15,2024-03-22 15:27:21.748,2.706935536727833,0
1656,1656,1.07,0.66,0.56,2024-03-22 15:27:21.792,1.376263056250512,0
1657,1657,0.46,0.64,-0.16,2024-03-22 15:27:21.795,0.804238770515324,0
1658,1658,0.81,0.94,0.99,2024-03-22 15:27:21.799,1.5873877913099874,0
1659,1659,0.76,0.86,0.34,2024-03-22 15:27:21.835,1.1969962405956,0
1660,1660,0.64,0.89,0.31,2024-03-22 15:27:21.844,1.1392102527628516,0
1661,1661,0.32,1.03,-0.17,2024-03-22 15:27:21.849,1.091879114188013,0
1662,1662,0.27,1.37,-0.32,2024-03-22 15:27:21.874,1.432550173641398,0
1663,1663,0.33,1.32,-0.28,2024-03-22 15:27:21.876,1.3891364223862248,0
1664,1664,0.44,1.55,-0.41,2024-03-22 15:27:21.879,1.6625883435174205,0
1665,1665,0.44,1.44,-0.49,2024-03-22 15:27:21.931,1.583445610054226,0
1666,1666,0.49,1.18,-0.28,2024-03-22 15:27:21.934,1.3080137613954983,0
1667,1667,0.4,1.11,-0.32,2024-03-22 15:27:21.936,1.2224974437601086,0
1668,1668,0.39,1.05,-0.19,2024-03-22 15:27:21.961,1.136089785184252,0
1669,1669,0.34,0.92,-0.19,2024-03-22 15:27:21.963,0.9990495483208028,0
1670,1670,0.29,0.88,-0.22,2024-03-22 15:27:21.965,0.9523129737644028,0
1671,1671,0.29,0.88,-0.01,2024-03-22 15:27:22.016,0.92660671268883,0
1672,1672,0.3,0.8,-0.06,2024-03-22 15:27:22.021,0.8565045242145544,0
1673,1673,0.3,0.79,-0.12,2024-03-22 15:27:22.026,0.8535221145348256,0
1674,1674,0.22,0.69,-0.22,2024-03-22 15:27:22.063,0.7569015788066503,0
1675,1675,0.16,0.64,-0.21,2024-03-22 15:27:22.067,0.6923149572268391,0
1676,1676,0.07,0.58,-0.02,2024-03-22 15:27:22.073,0.5845511098270193,0
1677,1677,-0.05,0.8,-0.0,2024-03-22 15:27:22.104,0.8015609770940699,0
1678,1678,-0.05,0.77,0.07,2024-03-22 15:27:22.109,0.7747902942086975,0
1679,1679,-0.01,0.79,0.07,2024-03-22 15:27:22.113,0.7931582439841371,0
1680,1680,0.06,0.77,0.04,2024-03-22 15:27:22.149,0.7733692520394123,0
1681,1681,0.15,0.73,0.09,2024-03-22 15:27:22.154,0.7506663706334525,0
1682,1682,0.16,0.7,0.12,2024-03-22 15:27:22.158,0.7280109889280517,0
1683,1683,0.15,0.98,0.13,2024-03-22 15:27:22.188,0.9998999949995,0
1684,1684,-0.06,0.51,0.11,2024-03-22 15:27:22.191,0.5251666402200353,0
1685,1685,-0.12,1.46,-0.15,2024-03-22 15:27:22.194,1.472582765076381,0
1686,1686,-0.14,1.38,-0.06,2024-03-22 15:27:22.231,1.3883803513446882,0
1687,1687,-0.1,1.44,0.08,2024-03-22 15:27:22.232,1.445683229480096,0
1688,1688,-0.11,1.55,0.19,2024-03-22 15:27:22.234,1.56547117507797,0
1689,1689,0.08,1.55,0.26,2024-03-22 15:27:22.236,1.573689931339716,0
1690,1690,0.16,1.64,0.3,2024-03-22 15:27:22.275,1.6748731295235466,0
1691,1691,0.17,1.39,0.16,2024-03-22 15:27:22.276,1.4094679847375036,0
1692,1692,0.23,1.48,0.13,2024-03-22 15:27:22.331,1.5033961553762205,0
1693,1693,0.19,1.9,0.17,2024-03-22 15:27:22.335,1.9170289512680811,0
1694,1694,-0.06,1.85,0.28,2024-03-22 15:27:22.337,1.872030982649593,0
1695,1695,-0.25,1.39,0.38,2024-03-22 15:27:22.339,1.4625320509308504,0
1696,1696,-0.64,0.23,0.29,2024-03-22 15:27:22.367,0.7393240155709809,0
1697,1697,-0.59,0.52,0.16,2024-03-22 15:27:22.368,0.8025584090893323,0
1698,1698,-0.52,0.53,0.02,2024-03-22 15:27:22.411,0.7427651041883969,0
1699,1699,-0.12,1.85,-0.17,2024-03-22 15:27:22.412,1.861665920620561,0
1700,1700,-0.21,1.08,0.05,2024-03-22 15:27:22.414,1.1013627921806692,0
1701,1701,-0.09,1.13,-0.01,2024-03-22 15:27:22.416,1.1336225121265011,0
1702,1702,-0.03,1.21,0.06,2024-03-22 15:27:22.468,1.2118580774991763,0
1703,1703,-0.01,1.3,0.11,2024-03-22 15:27:22.471,1.3046838697554286,0
1704,1704,-0.03,1.21,0.03,2024-03-22 15:27:22.475,1.2107435731813734,0
1705,1705,-0.05,1.24,-0.04,2024-03-22 15:27:22.509,1.2416521251944928,0
1706,1706,-0.04,1.38,-0.07,2024-03-22 15:27:22.513,1.3823530663329104,0
1707,1707,-0.04,1.15,-0.1,2024-03-22 15:27:22.552,1.1550324670761425,0
1708,1708,-0.03,0.98,-0.09,2024-03-22 15:27:22.555,0.9845811292118084,0
1709,1709,-0.03,0.98,-0.03,2024-03-22 15:27:22.558,0.9809179374443104,0
1710,1710,-0.03,0.95,0.0,2024-03-22 15:27:22.603,0.950473566176356,0
1711,1711,-0.01,0.95,-0.0,2024-03-22 15:27:22.611,0.9500526301210896,0
1712,1712,0.02,0.93,0.02,2024-03-22 15:27:22.613,0.9304300081145276,0
1713,1713,0.04,0.92,0.05,2024-03-22 15:27:22.636,0.922225568936364,0
1714,1714,0.05,0.9,0.05,2024-03-22 15:27:22.639,0.9027735042633894,0
1715,1715,0.04,0.93,-0.03,2024-03-22 15:27:22.641,0.9313431161500042,0
1716,1716,0.03,0.93,-0.01,2024-03-22 15:27:22.690,0.9305374790947436,0
1717,1717,0.04,1.01,0.03,2024-03-22 15:27:22.694,1.011236866416568,0
1718,1718,0.06,1.11,0.02,2024-03-22 15:27:22.699,1.1118003417880389,0
1719,1719,0.08,1.2,-0.0,2024-03-22 15:27:22.734,1.2026637102698323,0
1720,1720,0.1,1.24,-0.01,2024-03-22 15:27:22.739,1.244065914652435,0
1721,1721,0.1,1.25,-0.02,2024-03-22 15:27:22.743,1.2541531007018245,0
1722,1722,0.1,1.21,-0.04,2024-03-22 15:27:22.772,1.2147839314050874,0
1723,1723,0.07,1.13,-0.05,2024-03-22 15:27:22.775,1.133269606051446,0
1724,1724,0.06,1.07,-0.04,2024-03-22 15:27:22.777,1.0724271537032248,0
1725,1725,0.05,1.03,-0.01,2024-03-22 15:27:22.827,1.0312613635737546,0
1726,1726,0.05,0.97,0.03,2024-03-22 15:27:22.830,0.9717509969122748,0
1727,1727,0.03,0.95,0.06,2024-03-22 15:27:22.833,0.95236547606473,0
1728,1728,0.04,0.97,0.06,2024-03-22 15:27:22.870,0.9726767191621274,0
1729,1729,0.06,1.1,0.09,2024-03-22 15:27:22.874,1.105305387664423,0
